trial,withinphasetrial,withinblocktrial,block,phase,dotsLeft,dotsRight,rt,resp,cor,cresp,conf_press,cj,RTconf,ev,fb,diff,difflevel,condition,task,manip,questionID,questionResp,sub,age,gender,handedness,
0,0,0,0,0,47,33,1201,['c'],1,left,['3'],4,5296,[0.47798329],98,47,medium,plus,dotcolour,beta,,,56,18,V,R,
1,1,1,0,0,33,47,1265,['n'],1,right,['2'],5,4281,[-0.50177207],99,47,medium,plus,dotcolour,beta,,,56,18,V,R,
2,2,2,0,0,27,53,3316,['n'],1,right,['2'],5,1897,[-0.29538797],99,53,easy,plus,dotcolour,beta,,,56,18,V,R,
3,3,3,0,0,36,44,1733,['n'],1,right,['2'],5,584,[-0.09787792],97,44,hard,plus,dotcolour,beta,,,56,18,V,R,
4,4,4,0,0,27,53,1335,['n'],1,right,['1'],6,1076,[-0.30188919],100,53,easy,plus,dotcolour,beta,,,56,18,V,R,
5,5,5,0,0,27,53,1433,['n'],1,right,['1'],6,545,[-0.06808931],95,53,easy,plus,dotcolour,beta,,,56,18,V,R,
6,6,6,0,0,53,27,1151,['c'],1,left,['1'],6,606,[0.1100124],98,53,easy,plus,dotcolour,beta,,,56,18,V,R,
7,7,7,0,0,53,27,1383,['c'],1,left,['1'],6,519,[0.14639014],99,53,easy,plus,dotcolour,beta,,,56,18,V,R,
8,8,8,0,0,33,47,917,['n'],1,right,['1'],6,864,[-0.09186986],95,47,medium,plus,dotcolour,beta,,,56,18,V,R,
9,9,9,0,0,33,47,1350,['n'],1,right,['1'],6,577,[-0.17895633],100,47,medium,plus,dotcolour,beta,,,56,18,V,R,
10,10,10,0,0,33,47,1084,['n'],1,right,['1'],6,519,[-0.00832288],83,47,medium,plus,dotcolour,beta,,,56,18,V,R,
11,11,11,0,0,33,47,951,['n'],1,right,['1'],6,428,[-0.04221831],94,47,medium,plus,dotcolour,beta,,,56,18,V,R,
12,12,12,0,0,27,53,1150,['n'],1,right,['1'],6,407,[-0.18900258],100,53,easy,plus,dotcolour,beta,,,56,18,V,R,
13,13,13,0,0,36,44,1551,['n'],1,right,['1'],6,370,[0.00512027],82,44,hard,plus,dotcolour,beta,,,56,18,V,R,
14,14,14,0,0,27,53,1033,['n'],1,right,['2'],5,570,[-0.13164497],99,53,easy,plus,dotcolour,beta,,,56,18,V,R,
15,15,15,0,0,53,27,1082,['c'],1,left,['2'],5,585,[0.15452746],99,53,easy,plus,dotcolour,beta,,,56,18,V,R,
16,16,16,0,0,44,36,1233,['c'],1,left,['3'],4,1177,[0.16289764],97,44,hard,plus,dotcolour,beta,,,56,18,V,R,
17,17,17,0,0,53,27,999,['c'],1,left,['1'],6,674,[0.00503241],79,53,easy,plus,dotcolour,beta,,,56,18,V,R,
18,18,18,0,0,47,33,1068,['c'],1,left,['2'],5,558,[0.10143537],98,47,medium,plus,dotcolour,beta,,,56,18,V,R,
19,19,19,0,0,44,36,1751,['n'],0,left,['2'],5,1443,[0.1274324],25,44,hard,plus,dotcolour,beta,,,56,18,V,R,
20,20,20,0,0,53,27,1117,['c'],1,left,['2'],5,822,[0.19751963],99,53,easy,plus,dotcolour,beta,,,56,18,V,R,
21,21,21,0,0,36,44,1900,['n'],1,right,['3'],4,1130,[-0.22635288],99,44,hard,plus,dotcolour,beta,,,56,18,V,R,
22,22,22,0,0,44,36,1283,['c'],1,left,['3'],4,938,[0.09633589],94,44,hard,plus,dotcolour,beta,,,56,18,V,R,
23,23,23,0,0,33,47,1484,['n'],1,right,['3'],4,467,[-0.04904805],94,47,medium,plus,dotcolour,beta,,,56,18,V,R,
24,24,24,0,0,44,36,966,['c'],1,left,['2'],5,642,[0.00152113],78,44,hard,plus,dotcolour,beta,,,56,18,V,R,
25,25,25,0,0,33,47,1050,['n'],1,right,['2'],5,567,[0.04727155],55,47,medium,plus,dotcolour,beta,,,56,18,V,R,
26,26,26,0,0,36,44,868,['c'],0,right,['2'],5,784,[-0.10379647],27,44,hard,plus,dotcolour,beta,,,56,18,V,R,
27,27,27,0,0,44,36,984,['c'],1,left,['2'],5,793,[0.07271384],93,44,hard,plus,dotcolour,beta,,,56,18,V,R,
28,28,28,0,0,36,44,901,['c'],0,right,['2'],5,518,[0.05224421],94,44,hard,plus,dotcolour,beta,,,56,18,V,R,
29,29,29,0,0,53,27,868,['c'],1,left,['1'],6,464,[0.186101],100,53,easy,plus,dotcolour,beta,,,56,18,V,R,
30,30,30,0,0,47,33,1484,['n'],0,left,['3'],4,411,[-0.01728157],89,47,medium,plus,dotcolour,beta,,,56,18,V,R,
31,31,31,0,0,27,53,1134,['n'],1,right,['3'],4,455,[-0.19566378],100,53,easy,plus,dotcolour,beta,,,56,18,V,R,
32,32,32,0,0,47,33,883,['c'],1,left,['2'],5,730,[0.12917893],98,47,medium,plus,dotcolour,beta,,,56,18,V,R,
33,33,33,0,0,27,53,1117,['n'],1,right,['2'],5,490,[-0.11276738],99,53,easy,plus,dotcolour,beta,,,56,18,V,R,
34,34,34,0,0,36,44,767,['n'],1,right,['2'],5,408,[-0.21353122],100,44,hard,plus,dotcolour,beta,,,56,18,V,R,
35,35,35,0,0,36,44,1800,['c'],0,right,['3'],4,386,[-0.04003505],61,44,hard,plus,dotcolour,beta,,,56,18,V,R,
36,36,36,0,0,53,27,883,['c'],1,left,['2'],5,407,[0.07720249],98,53,easy,plus,dotcolour,beta,,,56,18,V,R,
37,37,37,0,0,47,33,1101,['n'],0,left,['2'],5,468,[-0.11275614],99,47,medium,plus,dotcolour,beta,,,56,18,V,R,
38,38,38,0,0,44,36,1100,['c'],1,left,['2'],5,494,[0.0495334],94,44,hard,plus,dotcolour,beta,,,56,18,V,R,
39,39,39,0,0,44,36,918,['n'],0,left,['2'],5,358,[-0.00438084],86,44,hard,plus,dotcolour,beta,,,56,18,V,R,
40,40,40,0,0,47,33,1034,['c'],1,left,['1'],6,375,[0.16845016],100,47,medium,plus,dotcolour,beta,,,56,18,V,R,
41,41,41,0,0,47,33,1766,['c'],1,left,['3'],4,803,[0.29470124],100,47,medium,plus,dotcolour,beta,,,56,18,V,R,
42,42,0,1,0,47,33,1217,['n'],0,left,['3'],4,1196,[0.05957812],48,47,medium,plus,dotcolour,beta,,,56,18,V,R,
43,43,1,1,0,33,47,1033,['n'],1,right,['2'],5,492,[-0.22339568],100,47,medium,plus,dotcolour,beta,,,56,18,V,R,
44,44,2,1,0,33,47,950,['n'],1,right,['2'],5,420,[-0.02002731],89,47,medium,plus,dotcolour,beta,,,56,18,V,R,
45,45,3,1,0,27,53,1134,['n'],1,right,['2'],5,390,[-0.13394695],100,53,easy,plus,dotcolour,beta,,,56,18,V,R,
46,46,4,1,0,36,44,1901,['c'],0,right,['2'],5,651,[0.05302783],92,44,hard,plus,dotcolour,beta,,,56,18,V,R,
47,47,5,1,0,36,44,999,['n'],1,right,['2'],5,419,[-0.12277849],99,44,hard,plus,dotcolour,beta,,,56,18,V,R,
48,48,6,1,0,27,53,866,['n'],1,right,['1'],6,312,[-0.14624519],100,53,easy,plus,dotcolour,beta,,,56,18,V,R,
49,49,7,1,0,27,53,1300,['n'],1,right,['2'],5,456,[-0.10489268],99,53,easy,plus,dotcolour,beta,,,56,18,V,R,
50,50,8,1,0,53,27,717,['c'],1,left,['2'],5,554,[0.2140767],100,53,easy,plus,dotcolour,beta,,,56,18,V,R,
51,51,9,1,0,44,36,867,['n'],0,left,['2'],5,530,[-0.0278137],89,44,hard,plus,dotcolour,beta,,,56,18,V,R,
52,52,10,1,0,27,53,868,['n'],1,right,['1'],6,460,[-0.08645022],98,53,easy,plus,dotcolour,beta,,,56,18,V,R,
53,53,11,1,0,27,53,819,['n'],1,right,['1'],6,514,[-0.22171531],100,53,easy,plus,dotcolour,beta,,,56,18,V,R,
54,54,12,1,0,36,44,1133,['n'],1,right,['1'],6,401,[-0.12597653],99,44,hard,plus,dotcolour,beta,,,56,18,V,R,
55,55,13,1,0,44,36,900,['c'],1,left,['2'],5,446,[0.07827131],97,44,hard,plus,dotcolour,beta,,,56,18,V,R,
56,56,14,1,0,47,33,1200,['c'],1,left,['2'],5,462,[0.07817212],97,47,medium,plus,dotcolour,beta,,,56,18,V,R,
57,57,15,1,0,47,33,1983,['c'],1,left,['2'],5,421,[0.07925717],98,47,medium,plus,dotcolour,beta,,,56,18,V,R,
58,58,16,1,0,36,44,934,['n'],1,right,['2'],5,529,[-0.15895281],100,44,hard,plus,dotcolour,beta,,,56,18,V,R,
59,59,17,1,0,53,27,949,['c'],1,left,['1'],6,679,[0.09561091],96,53,easy,plus,dotcolour,beta,,,56,18,V,R,
60,60,18,1,0,47,33,1100,['c'],1,left,['2'],5,488,[0.12365147],99,47,medium,plus,dotcolour,beta,,,56,18,V,R,
61,61,19,1,0,33,47,1385,['n'],1,right,['3'],4,582,[-0.0931073],97,47,medium,plus,dotcolour,beta,,,56,18,V,R,
62,62,20,1,0,53,27,750,['c'],1,left,['1'],6,402,[0.20828008],100,53,easy,plus,dotcolour,beta,,,56,18,V,R,
63,63,21,1,0,36,44,817,['n'],1,right,['1'],6,378,[-0.02148648],91,44,hard,plus,dotcolour,beta,,,56,18,V,R,
64,64,22,1,0,47,33,1416,['n'],0,left,['3'],4,404,[0.06912879],41,47,medium,plus,dotcolour,beta,,,56,18,V,R,
65,65,23,1,0,33,47,1001,['c'],0,right,['2'],5,1045,[-0.14016401],18,47,medium,plus,dotcolour,beta,,,56,18,V,R,
66,66,24,1,0,53,27,983,['c'],1,left,['2'],5,1037,[0.41023054],100,53,easy,plus,dotcolour,beta,,,56,18,V,R,
67,67,25,1,0,27,53,1235,['n'],1,right,['2'],5,538,[-0.04139454],92,53,easy,plus,dotcolour,beta,,,56,18,V,R,
68,68,26,1,0,33,47,1336,['c'],0,right,['3'],4,401,[0.05681215],96,47,medium,plus,dotcolour,beta,,,56,18,V,R,
69,69,27,1,0,44,36,1034,['n'],0,left,['3'],4,1112,[-0.04286206],84,44,hard,plus,dotcolour,beta,,,56,18,V,R,
70,70,28,1,0,53,27,1750,['c'],1,left,['2'],5,1055,[0.22804764],99,53,easy,plus,dotcolour,beta,,,56,18,V,R,
71,71,29,1,0,27,53,899,['n'],1,right,['2'],5,442,[-0.03568634],92,53,easy,plus,dotcolour,beta,,,56,18,V,R,
72,72,30,1,0,47,33,818,['c'],1,left,['2'],5,441,[0.12632479],99,47,medium,plus,dotcolour,beta,,,56,18,V,R,
73,73,31,1,0,36,44,767,['c'],0,right,['0'],1,1761,[-0.04962859],52,44,hard,plus,dotcolour,beta,,,56,18,V,R,
74,74,32,1,0,36,44,1317,['c'],0,right,['2'],5,431,[0.02149286],89,44,hard,plus,dotcolour,beta,,,56,18,V,R,
75,75,33,1,0,44,36,1466,['c'],1,left,['2'],5,764,[0.18101528],99,44,hard,plus,dotcolour,beta,,,56,18,V,R,
76,76,34,1,0,44,36,1050,['c'],1,left,['2'],5,477,[-0.02143767],71,44,hard,plus,dotcolour,beta,,,56,18,V,R,
77,77,35,1,0,44,36,1033,['n'],0,left,['2'],5,449,[-0.06791144],96,44,hard,plus,dotcolour,beta,,,56,18,V,R,
78,78,36,1,0,33,47,1465,['c'],0,right,['2'],5,422,[0.08639],98,47,medium,plus,dotcolour,beta,,,56,18,V,R,
79,79,37,1,0,47,33,1417,['c'],1,left,['2'],5,854,[0.00815012],78,47,medium,plus,dotcolour,beta,,,56,18,V,R,
80,80,38,1,0,53,27,867,['c'],1,left,['2'],5,434,[0.16636408],100,53,easy,plus,dotcolour,beta,,,56,18,V,R,
81,81,39,1,0,53,27,785,['c'],1,left,['1'],6,547,[0.25281047],100,53,easy,plus,dotcolour,beta,,,56,18,V,R,
82,82,40,1,0,44,36,1718,['n'],0,left,['3'],4,281,[-0.07149127],99,44,hard,plus,dotcolour,beta,,,56,18,V,R,
83,83,41,1,0,33,47,1017,['n'],1,right,['2'],5,526,[0.03444911],63,47,medium,plus,dotcolour,beta,,,56,18,V,R,
84,84,0,2,0,36,44,1185,['n'],1,right,['2'],5,351,[-0.01467698],89,44,hard,plus,dotcolour,beta,,,56,18,V,R,
85,85,1,2,0,47,33,783,['c'],1,left,['1'],6,547,[0.01104369],83,47,medium,plus,dotcolour,beta,,,56,18,V,R,
86,86,2,2,0,47,33,1567,['c'],1,left,['2'],5,855,[0.09084488],95,47,medium,plus,dotcolour,beta,,,56,18,V,R,
87,87,3,2,0,47,33,1567,['n'],0,left,['3'],4,471,[-0.08570286],98,47,medium,plus,dotcolour,beta,,,56,18,V,R,
88,88,4,2,0,47,33,1066,['c'],1,left,['3'],4,963,[0.07340005],91,47,medium,plus,dotcolour,beta,,,56,18,V,R,
89,89,5,2,0,44,36,983,['c'],1,left,['2'],5,462,[0.07154164],97,44,hard,plus,dotcolour,beta,,,56,18,V,R,
90,90,6,2,0,33,47,1866,['c'],0,right,['3'],4,690,[0.02574485],85,47,medium,plus,dotcolour,beta,,,56,18,V,R,
91,91,7,2,0,47,33,1068,['c'],1,left,['2'],5,397,[0.04297435],94,47,medium,plus,dotcolour,beta,,,56,18,V,R,
92,92,8,2,0,27,53,884,['n'],1,right,['1'],6,395,[-0.1332624],100,53,easy,plus,dotcolour,beta,,,56,18,V,R,
93,93,9,2,0,36,44,1467,['n'],1,right,['2'],5,610,[-0.01920693],85,44,hard,plus,dotcolour,beta,,,56,18,V,R,
94,94,10,2,0,27,53,818,['n'],1,right,['1'],6,426,[-0.03365019],92,53,easy,plus,dotcolour,beta,,,56,18,V,R,
95,95,11,2,0,44,36,1333,['c'],1,left,['2'],5,524,[0.0037656],81,44,hard,plus,dotcolour,beta,,,56,18,V,R,
96,96,12,2,0,53,27,1500,['c'],1,left,['2'],5,628,[0.16550213],99,53,easy,plus,dotcolour,beta,,,56,18,V,R,
97,97,13,2,0,53,27,1319,['c'],1,left,['2'],5,488,[0.11288111],99,53,easy,plus,dotcolour,beta,,,56,18,V,R,
98,98,14,2,0,33,47,1001,['n'],1,right,['2'],5,445,[-0.14648631],100,47,medium,plus,dotcolour,beta,,,56,18,V,R,
99,99,15,2,0,33,47,1184,['n'],1,right,['2'],5,621,[-0.26442576],100,47,medium,plus,dotcolour,beta,,,56,18,V,R,
100,100,16,2,0,27,53,684,['n'],1,right,['1'],6,490,[-0.16796823],100,53,easy,plus,dotcolour,beta,,,56,18,V,R,
101,101,17,2,0,33,47,1118,['n'],1,right,['2'],5,627,[-0.12187249],98,47,medium,plus,dotcolour,beta,,,56,18,V,R,
102,102,18,2,0,33,47,1200,['n'],1,right,['2'],5,483,[-0.10212525],98,47,medium,plus,dotcolour,beta,,,56,18,V,R,
103,103,19,2,0,44,36,1183,['n'],0,left,['3'],4,345,[-0.0777948],98,44,hard,plus,dotcolour,beta,,,56,18,V,R,
104,104,20,2,0,36,44,1300,['n'],1,right,['2'],5,929,[-0.08360971],93,44,hard,plus,dotcolour,beta,,,56,18,V,R,
105,105,21,2,0,27,53,1152,['c'],0,right,['2'],5,488,[0.03889746],92,53,easy,plus,dotcolour,beta,,,56,18,V,R,
106,106,22,2,0,36,44,1201,['n'],1,right,['3'],4,284,[-0.20387772],100,44,hard,plus,dotcolour,beta,,,56,18,V,R,
107,107,23,2,0,27,53,918,['n'],1,right,['1'],6,589,[-0.13058181],99,53,easy,plus,dotcolour,beta,,,56,18,V,R,
108,108,24,2,0,44,36,1132,['c'],1,left,['1'],6,410,[-0.0336773],65,44,hard,plus,dotcolour,beta,,,56,18,V,R,
109,109,25,2,0,36,44,865,['n'],1,right,['2'],5,440,[-0.15585066],100,44,hard,plus,dotcolour,beta,,,56,18,V,R,
110,110,26,2,0,44,36,1034,['n'],0,left,['0'],1,2334,[-0.09891545],86,44,hard,plus,dotcolour,beta,,,56,18,V,R,
111,111,27,2,0,36,44,1117,['c'],0,right,['2'],5,901,[-0.10567263],28,44,hard,plus,dotcolour,beta,,,56,18,V,R,
112,112,28,2,0,33,47,800,['n'],1,right,['3'],4,2097,[-0.15908663],94,47,medium,plus,dotcolour,beta,,,56,18,V,R,
113,113,29,2,0,27,53,901,['n'],1,right,['2'],5,537,[-0.13477257],99,53,easy,plus,dotcolour,beta,,,56,18,V,R,
114,114,30,2,0,47,33,883,['c'],1,left,['2'],5,570,[0.25397344],100,47,medium,plus,dotcolour,beta,,,56,18,V,R,
115,115,31,2,0,53,27,918,['c'],1,left,['1'],6,455,[0.23357852],100,53,easy,plus,dotcolour,beta,,,56,18,V,R,
116,116,32,2,0,47,33,3783,['c'],1,left,['3'],4,879,[0.13019511],97,47,medium,plus,dotcolour,beta,,,56,18,V,R,
117,117,33,2,0,53,27,1067,['c'],1,left,['1'],6,682,[0.27088274],100,53,easy,plus,dotcolour,beta,,,56,18,V,R,
118,118,34,2,0,53,27,1051,['c'],1,left,['1'],6,502,[0.088946],98,53,easy,plus,dotcolour,beta,,,56,18,V,R,
119,119,35,2,0,27,53,916,['n'],1,right,['2'],5,518,[-0.20778987],100,53,easy,plus,dotcolour,beta,,,56,18,V,R,
120,120,36,2,0,33,47,1350,['c'],0,right,['3'],4,341,[0.1081522],99,47,medium,plus,dotcolour,beta,,,56,18,V,R,
121,121,37,2,0,44,36,1333,['n'],0,left,['3'],4,355,[-0.02255882],91,44,hard,plus,dotcolour,beta,,,56,18,V,R,
122,122,38,2,0,53,27,967,['c'],1,left,['2'],5,463,[0.10926969],99,53,easy,plus,dotcolour,beta,,,56,18,V,R,
123,123,39,2,0,36,44,1017,['n'],1,right,['3'],4,397,[-0.09145701],99,44,hard,plus,dotcolour,beta,,,56,18,V,R,
124,124,40,2,0,53,27,881,['c'],1,left,['2'],5,460,[0.21321349],100,53,easy,plus,dotcolour,beta,,,56,18,V,R,
125,125,41,2,0,44,36,1084,['n'],0,left,['2'],5,422,[-0.10405299],99,44,hard,plus,dotcolour,beta,,,56,18,V,R,
126,0,0,3,1,44,36,1418,['n'],0,left,['2'],5,566,[-0.1476608],90,44,hard,minus,dotcolour,beta,,,56,18,V,R,
127,1,1,3,1,36,44,1416,['n'],1,right,['3'],4,305,[-0.16950147],98,44,hard,minus,dotcolour,beta,,,56,18,V,R,
128,2,2,3,1,27,53,934,['c'],0,right,['3'],4,368,[-0.025971],8,53,easy,minus,dotcolour,beta,,,56,18,V,R,
129,3,3,3,1,33,47,1102,['c'],0,right,['2'],5,535,[0.09024742],70,47,medium,minus,dotcolour,beta,,,56,18,V,R,
130,4,4,3,1,44,36,984,['c'],1,left,['2'],5,634,[0.27540764],99,44,hard,minus,dotcolour,beta,,,56,18,V,R,
131,5,5,3,1,53,27,885,['c'],1,left,['2'],5,486,[0.22001491],99,53,easy,minus,dotcolour,beta,,,56,18,V,R,
132,6,6,3,1,44,36,1000,['c'],1,left,['2'],5,492,[0.08620803],69,44,hard,minus,dotcolour,beta,,,56,18,V,R,
133,7,7,3,1,47,33,1015,['c'],1,left,['3'],4,609,[0.2178921],98,47,medium,minus,dotcolour,beta,,,56,18,V,R,
134,8,8,3,1,27,53,1315,['n'],1,right,['2'],5,517,[-0.25212531],99,53,easy,minus,dotcolour,beta,,,56,18,V,R,
135,9,9,3,1,53,27,1484,['c'],1,left,['2'],5,950,[0.254557],98,53,easy,minus,dotcolour,beta,,,56,18,V,R,
136,10,10,3,1,27,53,1033,['n'],1,right,['2'],5,888,[-0.14417067],84,53,easy,minus,dotcolour,beta,,,56,18,V,R,
137,11,11,3,1,47,33,984,['c'],1,left,['3'],4,510,[0.1661265],94,47,medium,minus,dotcolour,beta,,,56,18,V,R,
138,12,12,3,1,27,53,1535,['n'],1,right,['2'],5,405,[-0.04100202],40,53,easy,minus,dotcolour,beta,,,56,18,V,R,
139,13,13,3,1,44,36,1517,['c'],1,left,['2'],5,537,[0.04613959],44,44,hard,minus,dotcolour,beta,,,56,18,V,R,
140,14,14,3,1,53,27,983,['c'],1,left,['2'],5,445,[0.06528984],57,53,easy,minus,dotcolour,beta,,,56,18,V,R,
141,15,15,3,1,27,53,800,['n'],1,right,['2'],5,508,[-0.13935324],89,53,easy,minus,dotcolour,beta,,,56,18,V,R,
142,16,16,3,1,53,27,1683,['c'],1,left,['2'],5,575,[0.14402939],89,53,easy,minus,dotcolour,beta,,,56,18,V,R,
143,17,17,3,1,36,44,1268,['c'],0,right,['3'],4,389,[-0.08857843],2,44,hard,minus,dotcolour,beta,,,56,18,V,R,
144,18,18,3,1,36,44,1467,['n'],1,right,['3'],4,555,[-0.15991874],93,44,hard,minus,dotcolour,beta,,,56,18,V,R,
145,19,19,3,1,44,36,1419,['c'],1,left,['3'],4,670,[0.31213647],100,44,hard,minus,dotcolour,beta,,,56,18,V,R,
146,20,20,3,1,47,33,2301,['n'],0,left,['3'],4,792,[0.06748126],8,47,medium,minus,dotcolour,beta,,,56,18,V,R,
147,21,21,3,1,33,47,850,['n'],1,right,['3'],4,488,[-0.09660833],74,47,medium,minus,dotcolour,beta,,,56,18,V,R,
148,22,22,3,1,33,47,984,['n'],1,right,['3'],4,309,[-0.12983308],92,47,medium,minus,dotcolour,beta,,,56,18,V,R,
149,23,23,3,1,44,36,1550,['c'],1,left,['3'],4,475,[0.00211943],20,44,hard,minus,dotcolour,beta,,,56,18,V,R,
150,24,24,3,1,33,47,933,['n'],1,right,['2'],5,372,[-0.1136224],85,47,medium,minus,dotcolour,beta,,,56,18,V,R,
151,25,25,3,1,36,44,1900,['n'],1,right,['3'],4,675,[-0.18323195],94,44,hard,minus,dotcolour,beta,,,56,18,V,R,
152,26,26,3,1,27,53,850,['n'],1,right,['3'],4,479,[-0.12231493],85,53,easy,minus,dotcolour,beta,,,56,18,V,R,
153,27,27,3,1,47,33,917,['c'],1,left,['2'],5,544,[0.12978424],86,47,medium,minus,dotcolour,beta,,,56,18,V,R,
154,28,28,3,1,33,47,834,['n'],1,right,['2'],5,418,[-0.01647902],25,47,medium,minus,dotcolour,beta,,,56,18,V,R,
155,29,29,3,1,36,44,2001,['n'],1,right,['2'],5,435,[-0.08258338],68,44,hard,minus,dotcolour,beta,,,56,18,V,R,
156,30,30,3,1,53,27,884,['c'],1,left,['2'],5,519,[0.16970558],95,53,easy,minus,dotcolour,beta,,,56,18,V,R,
157,31,31,3,1,33,47,934,['n'],1,right,['2'],5,406,[-0.10545719],80,47,medium,minus,dotcolour,beta,,,56,18,V,R,
158,32,32,3,1,47,33,1702,['c'],1,left,['2'],5,483,[0.12853138],87,47,medium,minus,dotcolour,beta,,,56,18,V,R,
159,33,33,3,1,27,53,767,['n'],1,right,['1'],6,394,[-0.09719367],77,53,easy,minus,dotcolour,beta,,,56,18,V,R,
160,34,34,3,1,36,44,1268,['c'],0,right,['3'],4,409,[0.00642621],20,44,hard,minus,dotcolour,beta,,,56,18,V,R,
161,35,35,3,1,36,44,1002,['n'],1,right,['2'],5,833,[-0.06296662],54,44,hard,minus,dotcolour,beta,,,56,18,V,R,
162,36,36,3,1,44,36,1099,['c'],1,left,['2'],5,484,[0.06482524],56,44,hard,minus,dotcolour,beta,,,56,18,V,R,
163,37,37,3,1,33,47,884,['n'],1,right,['1'],6,319,[-0.22350384],100,47,medium,minus,dotcolour,beta,,,56,18,V,R,
164,38,38,3,1,47,33,1466,['n'],0,left,['3'],4,977,[0.06400833],10,47,medium,minus,dotcolour,beta,,,56,18,V,R,
165,39,39,3,1,47,33,1600,['n'],0,left,['2'],5,723,[0.09345536],4,47,medium,minus,dotcolour,beta,,,56,18,V,R,
166,40,40,3,1,53,27,1351,['c'],1,left,['3'],4,1121,[0.33970915],99,53,easy,minus,dotcolour,beta,,,56,18,V,R,
167,41,41,3,1,53,27,1301,['c'],1,left,['2'],5,498,[0.24229133],99,53,easy,minus,dotcolour,beta,,,56,18,V,R,
168,42,0,4,1,27,53,1268,['n'],1,right,['1'],6,623,[-0.16457175],92,53,easy,minus,dotcolour,beta,,,56,18,V,R,
169,43,1,4,1,44,36,1350,['c'],1,left,['3'],4,392,[0.02785626],31,44,hard,minus,dotcolour,beta,,,56,18,V,R,
170,44,2,4,1,44,36,1450,['n'],0,left,['3'],4,624,[-0.02570254],34,44,hard,minus,dotcolour,beta,,,56,18,V,R,
171,45,3,4,1,36,44,1033,['c'],0,right,['2'],5,791,[0.13497786],83,44,hard,minus,dotcolour,beta,,,56,18,V,R,
172,46,4,4,1,53,27,868,['c'],1,left,['2'],5,437,[0.21845181],99,53,easy,minus,dotcolour,beta,,,56,18,V,R,
173,47,5,4,1,33,47,917,['n'],1,right,['1'],6,424,[-0.13847646],91,47,medium,minus,dotcolour,beta,,,56,18,V,R,
174,48,6,4,1,27,53,933,['n'],1,right,['1'],6,491,[-0.21086346],98,53,easy,minus,dotcolour,beta,,,56,18,V,R,
175,49,7,4,1,27,53,1033,['n'],1,right,['1'],6,590,[-0.24768054],99,53,easy,minus,dotcolour,beta,,,56,18,V,R,
176,50,8,4,1,36,44,968,['n'],1,right,['1'],6,377,[-0.08556485],71,44,hard,minus,dotcolour,beta,,,56,18,V,R,
177,51,9,4,1,44,36,1151,['c'],1,left,['1'],6,421,[0.08959251],72,44,hard,minus,dotcolour,beta,,,56,18,V,R,
178,52,10,4,1,27,53,968,['n'],1,right,['1'],6,599,[-0.16364833],93,53,easy,minus,dotcolour,beta,,,56,18,V,R,
179,53,11,4,1,47,33,1951,['c'],1,left,['3'],4,802,[0.13212378],82,47,medium,minus,dotcolour,beta,,,56,18,V,R,
180,54,12,4,1,27,53,1167,['n'],1,right,['2'],5,556,[-0.17712291],95,53,easy,minus,dotcolour,beta,,,56,18,V,R,
181,55,13,4,1,53,27,1168,['c'],1,left,['2'],5,648,[0.18671866],95,53,easy,minus,dotcolour,beta,,,56,18,V,R,
182,56,14,4,1,27,53,1267,['n'],1,right,['2'],5,1036,[-0.24236065],96,53,easy,minus,dotcolour,beta,,,56,18,V,R,
183,57,15,4,1,36,44,1901,['n'],1,right,['3'],4,888,[-0.13668993],82,44,hard,minus,dotcolour,beta,,,56,18,V,R,
184,58,16,4,1,53,27,1103,['c'],1,left,['3'],4,1282,[0.23980826],95,53,easy,minus,dotcolour,beta,,,56,18,V,R,
185,59,17,4,1,47,33,1783,['c'],1,left,['3'],4,472,[0.08664944],69,47,medium,minus,dotcolour,beta,,,56,18,V,R,
186,60,18,4,1,36,44,1200,['n'],1,right,['3'],4,1518,[-0.28078544],96,44,hard,minus,dotcolour,beta,,,56,18,V,R,
187,61,19,4,1,33,47,1250,['n'],1,right,['2'],5,649,[0.0351917],12,47,medium,minus,dotcolour,beta,,,56,18,V,R,
188,62,20,4,1,53,27,851,['c'],1,left,['1'],6,1149,[0.31809993],99,53,easy,minus,dotcolour,beta,,,56,18,V,R,
189,63,21,4,1,47,33,1833,['c'],1,left,['2'],5,439,[0.16114462],95,47,medium,minus,dotcolour,beta,,,56,18,V,R,
190,64,22,4,1,53,27,1683,['n'],0,left,['3'],4,499,[-0.14996336],92,53,easy,minus,dotcolour,beta,,,56,18,V,R,
191,65,23,4,1,47,33,1068,['c'],1,left,['3'],4,645,[0.16290465],92,47,medium,minus,dotcolour,beta,,,56,18,V,R,
192,66,24,4,1,33,47,1167,['n'],1,right,['3'],4,526,[-0.09047968],70,47,medium,minus,dotcolour,beta,,,56,18,V,R,
193,67,25,4,1,53,27,1150,['c'],1,left,['2'],5,756,[0.15561558],89,53,easy,minus,dotcolour,beta,,,56,18,V,R,
194,68,26,4,1,33,47,917,['n'],1,right,['2'],5,899,[-0.21778398],96,47,medium,minus,dotcolour,beta,,,56,18,V,R,
195,69,27,4,1,53,27,982,['n'],0,left,['2'],5,423,[-0.16535723],95,53,easy,minus,dotcolour,beta,,,56,18,V,R,
196,70,28,4,1,36,44,2317,['n'],1,right,['2'],5,595,[0.04440268],9,44,hard,minus,dotcolour,beta,,,56,18,V,R,
197,71,29,4,1,44,36,1017,['n'],0,left,['3'],4,803,[0.04118304],13,44,hard,minus,dotcolour,beta,,,56,18,V,R,
198,72,30,4,1,47,33,1251,['n'],0,left,['3'],4,730,[0.15610709],1,47,medium,minus,dotcolour,beta,,,56,18,V,R,
199,73,31,4,1,36,44,1766,['c'],0,right,['3'],4,665,[0.08855222],67,44,hard,minus,dotcolour,beta,,,56,18,V,R,
200,74,32,4,1,27,53,1467,['n'],1,right,['3'],4,676,[-0.29658756],99,53,easy,minus,dotcolour,beta,,,56,18,V,R,
201,75,33,4,1,33,47,1818,['n'],1,right,['3'],4,993,[-0.42082582],100,47,medium,minus,dotcolour,beta,,,56,18,V,R,
202,76,34,4,1,47,33,1083,['c'],1,left,['3'],4,471,[0.16413199],95,47,medium,minus,dotcolour,beta,,,56,18,V,R,
203,77,35,4,1,44,36,2217,['n'],0,left,['3'],4,356,[-0.01478713],23,44,hard,minus,dotcolour,beta,,,56,18,V,R,
204,78,36,4,1,47,33,1101,['n'],0,left,['3'],4,355,[-0.02473141],28,47,medium,minus,dotcolour,beta,,,56,18,V,R,
205,79,37,4,1,44,36,1717,['c'],1,left,['2'],5,570,[0.03303109],37,44,hard,minus,dotcolour,beta,,,56,18,V,R,
206,80,38,4,1,33,47,1999,['c'],0,right,['2'],5,467,[-0.01761302],13,47,medium,minus,dotcolour,beta,,,56,18,V,R,
207,81,39,4,1,36,44,1634,['n'],1,right,['3'],4,720,[-0.11617178],78,44,hard,minus,dotcolour,beta,,,56,18,V,R,
208,82,40,4,1,44,36,1683,['c'],1,left,['3'],4,521,[0.0111765],25,44,hard,minus,dotcolour,beta,,,56,18,V,R,
209,83,41,4,1,33,47,966,['n'],1,right,['2'],5,488,[-0.10075401],76,47,medium,minus,dotcolour,beta,,,56,18,V,R,
210,84,0,5,1,44,36,1601,['c'],1,left,['2'],5,472,[0.27225046],100,44,hard,minus,dotcolour,beta,,,56,18,V,R,
211,85,1,5,1,53,27,985,['c'],1,left,['1'],6,407,[0.03259167],34,53,easy,minus,dotcolour,beta,,,56,18,V,R,
212,86,2,5,1,47,33,967,['n'],0,left,['1'],6,433,[0.08531619],2,47,medium,minus,dotcolour,beta,,,56,18,V,R,
213,87,3,5,1,53,27,850,['c'],1,left,['1'],6,391,[0.06829256],59,53,easy,minus,dotcolour,beta,,,56,18,V,R,
214,88,4,5,1,53,27,949,['c'],1,left,['1'],6,402,[0.21472437],99,53,easy,minus,dotcolour,beta,,,56,18,V,R,
215,89,5,5,1,47,33,1450,['c'],1,left,['3'],4,386,[0.12912004],89,47,medium,minus,dotcolour,beta,,,56,18,V,R,
216,90,6,5,1,53,27,1017,['c'],1,left,['3'],4,411,[0.13501568],90,53,easy,minus,dotcolour,beta,,,56,18,V,R,
217,91,7,5,1,36,44,1000,['n'],1,right,['2'],5,587,[-0.23600829],99,44,hard,minus,dotcolour,beta,,,56,18,V,R,
218,92,8,5,1,27,53,834,['n'],1,right,['2'],5,396,[-0.06558832],57,53,easy,minus,dotcolour,beta,,,56,18,V,R,
219,93,9,5,1,53,27,934,['c'],1,left,['2'],5,704,[0.16419074],91,53,easy,minus,dotcolour,beta,,,56,18,V,R,
220,94,10,5,1,44,36,1201,['n'],0,left,['3'],4,396,[-0.1713801],96,44,hard,minus,dotcolour,beta,,,56,18,V,R,
221,95,11,5,1,36,44,1018,['n'],1,right,['3'],4,469,[-0.07767303],64,44,hard,minus,dotcolour,beta,,,56,18,V,R,
222,96,12,5,1,53,27,902,['c'],1,left,['1'],6,423,[0.13441736],90,53,easy,minus,dotcolour,beta,,,56,18,V,R,
223,97,13,5,1,33,47,884,['n'],1,right,['1'],6,364,[-0.00728254],19,47,medium,minus,dotcolour,beta,,,56,18,V,R,
224,98,14,5,1,27,53,967,['n'],1,right,['1'],6,336,[0.02180898],8,53,easy,minus,dotcolour,beta,,,56,18,V,R,
225,99,15,5,1,44,36,1116,['n'],0,left,['1'],6,407,[-0.03601554],37,44,hard,minus,dotcolour,beta,,,56,18,V,R,
226,100,16,5,1,27,53,718,['n'],1,right,['1'],6,395,[-0.13504318],91,53,easy,minus,dotcolour,beta,,,56,18,V,R,
227,101,17,5,1,27,53,684,['n'],1,right,['1'],6,386,[-0.03652227],37,53,easy,minus,dotcolour,beta,,,56,18,V,R,
228,102,18,5,1,47,33,917,['n'],0,left,['1'],6,351,[0.00669447],13,47,medium,minus,dotcolour,beta,,,56,18,V,R,
229,103,19,5,1,33,47,1935,['n'],1,right,['3'],4,340,[0.00202887],14,47,medium,minus,dotcolour,beta,,,56,18,V,R,
230,104,20,5,1,27,53,751,['n'],1,right,['3'],4,370,[-0.17562082],97,53,easy,minus,dotcolour,beta,,,56,18,V,R,
231,105,21,5,1,33,47,1667,['n'],1,right,['3'],4,297,[-0.19796206],99,47,medium,minus,dotcolour,beta,,,56,18,V,R,
232,106,22,5,1,47,33,1001,['c'],1,left,['2'],5,720,[0.14427778],87,47,medium,minus,dotcolour,beta,,,56,18,V,R,
233,107,23,5,1,33,47,984,['n'],1,right,['2'],5,339,[-0.05491099],50,47,medium,minus,dotcolour,beta,,,56,18,V,R,
234,108,24,5,1,27,53,951,['n'],1,right,['2'],5,313,[-0.09796382],80,53,easy,minus,dotcolour,beta,,,56,18,V,R,
235,109,25,5,1,36,44,2367,['n'],1,right,['2'],5,1887,[-0.12588417],72,44,hard,minus,dotcolour,beta,,,56,18,V,R,
236,110,26,5,1,44,36,2000,['n'],0,left,['2'],5,284,[-0.043268],40,44,hard,minus,dotcolour,beta,,,56,18,V,R,
237,111,27,5,1,47,33,1117,['n'],0,left,['3'],4,341,[-0.0192841],25,47,medium,minus,dotcolour,beta,,,56,18,V,R,
238,112,28,5,1,33,47,916,['n'],1,right,['3'],4,348,[-0.15695792],96,47,medium,minus,dotcolour,beta,,,56,18,V,R,
239,113,29,5,1,36,44,784,['n'],1,right,['3'],4,377,[0.0073792],14,44,hard,minus,dotcolour,beta,,,56,18,V,R,
240,114,30,5,1,36,44,1000,['n'],1,right,['3'],4,938,[-0.09088311],66,44,hard,minus,dotcolour,beta,,,56,18,V,R,
241,115,31,5,1,33,47,1116,['c'],0,right,['3'],4,786,[0.00267919],25,47,medium,minus,dotcolour,beta,,,56,18,V,R,
242,116,32,5,1,36,44,817,['n'],1,right,['3'],4,338,[-0.07528389],65,44,hard,minus,dotcolour,beta,,,56,18,V,R,
243,117,33,5,1,47,33,1200,['c'],1,left,['3'],4,949,[0.2184932],95,47,medium,minus,dotcolour,beta,,,56,18,V,R,
244,118,34,5,1,33,47,1118,['c'],0,right,['3'],4,427,[0.11328598],83,47,medium,minus,dotcolour,beta,,,56,18,V,R,
245,119,35,5,1,36,44,850,['n'],1,right,['2'],5,425,[-0.06388223],56,44,hard,minus,dotcolour,beta,,,56,18,V,R,
246,120,36,5,1,47,33,1149,['c'],1,left,['3'],4,348,[0.10237764],81,47,medium,minus,dotcolour,beta,,,56,18,V,R,
247,121,37,5,1,44,36,982,['n'],0,left,['2'],5,439,[-0.16425509],95,44,hard,minus,dotcolour,beta,,,56,18,V,R,
248,122,38,5,1,53,27,1250,['c'],1,left,['2'],5,669,[0.15595789],90,53,easy,minus,dotcolour,beta,,,56,18,V,R,
249,123,39,5,1,44,36,851,['n'],0,left,['2'],5,361,[-0.07430791],64,44,hard,minus,dotcolour,beta,,,56,18,V,R,
250,124,40,5,1,27,53,1283,['n'],1,right,['1'],6,312,[-0.14491897],95,53,easy,minus,dotcolour,beta,,,56,18,V,R,
251,125,41,5,1,44,36,1034,['c'],1,left,['2'],5,412,[0.14325016],92,44,hard,minus,dotcolour,beta,,,56,18,V,R,
252,0,0,6,2,27,53,816,['n'],1,right,['1'],6,343,[-0.18493751],100,53,easy,plus,dotcolour,beta,,,56,18,V,R,
253,1,1,6,2,53,27,1100,['c'],1,left,['2'],5,431,[0.04430336],94,53,easy,plus,dotcolour,beta,,,56,18,V,R,
254,2,2,6,2,47,33,1850,['c'],1,left,['2'],5,533,[0.19147727],100,47,medium,plus,dotcolour,beta,,,56,18,V,R,
255,3,3,6,2,33,47,799,['n'],1,right,['1'],6,441,[-0.06751919],97,47,medium,plus,dotcolour,beta,,,56,18,V,R,
256,4,4,6,2,36,44,933,['n'],1,right,['2'],5,930,[-0.13374618],97,44,hard,plus,dotcolour,beta,,,56,18,V,R,
257,5,5,6,2,33,47,1201,['n'],1,right,['1'],6,799,[-0.06727567],92,47,medium,plus,dotcolour,beta,,,56,18,V,R,
258,6,6,6,2,44,36,950,['c'],1,left,['2'],5,722,[0.15139303],99,44,hard,plus,dotcolour,beta,,,56,18,V,R,
259,7,7,6,2,44,36,1050,['c'],1,left,['3'],4,469,[0.15982822],100,44,hard,plus,dotcolour,beta,,,56,18,V,R,
260,8,8,6,2,47,33,866,['n'],0,left,['2'],5,384,[-0.07178044],98,47,medium,plus,dotcolour,beta,,,56,18,V,R,
261,9,9,6,2,27,53,884,['n'],1,right,['2'],5,430,[-0.09924262],99,53,easy,plus,dotcolour,beta,,,56,18,V,R,
262,10,10,6,2,47,33,1485,['c'],1,left,['3'],4,291,[0.11842627],100,47,medium,plus,dotcolour,beta,,,56,18,V,R,
263,11,11,6,2,33,47,768,['n'],1,right,['1'],6,442,[-0.21467042],100,47,medium,plus,dotcolour,beta,,,56,18,V,R,
264,12,12,6,2,47,33,1016,['c'],1,left,['1'],6,448,[0.21484318],100,47,medium,plus,dotcolour,beta,,,56,18,V,R,
265,13,13,6,2,27,53,784,['n'],1,right,['1'],6,288,[-0.0986605],99,53,easy,plus,dotcolour,beta,,,56,18,V,R,
266,14,14,6,2,27,53,1384,['c'],0,right,['1'],6,375,[-0.07911569],33,53,easy,plus,dotcolour,beta,,,56,18,V,R,
267,15,15,6,2,36,44,901,['n'],1,right,['1'],6,421,[-0.0945741],98,44,hard,plus,dotcolour,beta,,,56,18,V,R,
268,16,16,6,2,44,36,1183,['c'],1,left,['3'],4,718,[0.15875493],99,44,hard,plus,dotcolour,beta,,,56,18,V,R,
269,17,17,6,2,53,27,1218,['c'],1,left,['1'],6,361,[-0.02083626],74,53,easy,plus,dotcolour,beta,,,56,18,V,R,
270,18,18,6,2,44,36,1100,['n'],0,left,['2'],5,1487,[-0.03908908],80,44,hard,plus,dotcolour,beta,,,56,18,V,R,
271,19,19,6,2,33,47,934,['n'],1,right,['1'],6,296,[-0.03754998],96,47,medium,plus,dotcolour,beta,,,56,18,V,R,
272,20,20,6,2,44,36,1184,['c'],1,left,['2'],5,422,[0.0982779],99,44,hard,plus,dotcolour,beta,,,56,18,V,R,
273,21,21,6,2,53,27,1050,['c'],1,left,['2'],5,460,[0.21007897],100,53,easy,plus,dotcolour,beta,,,56,18,V,R,
274,22,22,6,2,53,27,934,['n'],0,left,['2'],5,589,[0.02314542],68,53,easy,plus,dotcolour,beta,,,56,18,V,R,
275,23,23,6,2,36,44,1184,['c'],0,right,['2'],5,471,[0.09426842],98,44,hard,plus,dotcolour,beta,,,56,18,V,R,
276,24,24,6,2,36,44,1084,['c'],0,right,['2'],5,386,[0.12730236],100,44,hard,plus,dotcolour,beta,,,56,18,V,R,
277,25,25,6,2,27,53,850,['n'],1,right,['1'],6,449,[-0.30112175],100,53,easy,plus,dotcolour,beta,,,56,18,V,R,
278,26,26,6,2,27,53,966,['n'],1,right,['1'],6,410,[-0.11302024],99,53,easy,plus,dotcolour,beta,,,56,18,V,R,
279,27,27,6,2,47,33,1267,['c'],1,left,['3'],4,336,[0.09753892],99,47,medium,plus,dotcolour,beta,,,56,18,V,R,
280,28,28,6,2,47,33,1217,['c'],1,left,['3'],4,650,[0.12375572],98,47,medium,plus,dotcolour,beta,,,56,18,V,R,
281,29,29,6,2,53,27,1467,['c'],1,left,['1'],6,503,[0.11142329],99,53,easy,plus,dotcolour,beta,,,56,18,V,R,
282,30,30,6,2,44,36,1250,['c'],1,left,['3'],4,353,[0.12240367],100,44,hard,plus,dotcolour,beta,,,56,18,V,R,
283,31,31,6,2,27,53,884,['n'],1,right,['1'],6,609,[-0.19570289],100,53,easy,plus,dotcolour,beta,,,56,18,V,R,
284,32,32,6,2,53,27,1400,['c'],1,left,['2'],5,385,[0.06957832],97,53,easy,plus,dotcolour,beta,,,56,18,V,R,
285,33,33,6,2,53,27,1434,['c'],1,left,['2'],5,378,[0.19766971],100,53,easy,plus,dotcolour,beta,,,56,18,V,R,
286,34,34,6,2,44,36,1750,['c'],1,left,['3'],4,351,[0.11077527],99,44,hard,plus,dotcolour,beta,,,56,18,V,R,
287,35,35,6,2,36,44,1167,['n'],1,right,['3'],4,379,[-0.00057443],84,44,hard,plus,dotcolour,beta,,,56,18,V,R,
288,36,36,6,2,36,44,1767,['n'],1,right,['3'],4,702,[0.0112555],72,44,hard,plus,dotcolour,beta,,,56,18,V,R,
289,37,37,6,2,33,47,917,['n'],1,right,['3'],4,294,[-0.18918004],100,47,medium,plus,dotcolour,beta,,,56,18,V,R,
290,38,38,6,2,33,47,1084,['n'],1,right,['3'],4,224,[-0.1315557],100,47,medium,plus,dotcolour,beta,,,56,18,V,R,
291,39,39,6,2,33,47,1501,['n'],1,right,['1'],6,324,[-0.03807954],95,47,medium,plus,dotcolour,beta,,,56,18,V,R,
292,40,40,6,2,47,33,1034,['c'],1,left,['2'],5,383,[0.11201047],99,47,medium,plus,dotcolour,beta,,,56,18,V,R,
293,41,41,6,2,36,44,1316,['n'],1,right,['3'],4,516,[0.08192702],34,44,hard,plus,dotcolour,beta,,,56,18,V,R,
294,42,0,7,2,36,44,1319,['n'],1,right,['2'],5,766,[0.04559108],55,44,hard,plus,dotcolour,beta,,,56,18,V,R,
295,43,1,7,2,53,27,968,['c'],1,left,['2'],5,434,[0.17620163],100,53,easy,plus,dotcolour,beta,,,56,18,V,R,
296,44,2,7,2,27,53,751,['n'],1,right,['2'],5,500,[-0.1175573],99,53,easy,plus,dotcolour,beta,,,56,18,V,R,
297,45,3,7,2,44,36,1401,['c'],1,left,['3'],4,329,[-0.07675195],34,44,hard,plus,dotcolour,beta,,,56,18,V,R,
298,46,4,7,2,36,44,832,['n'],1,right,['2'],5,452,[-0.20937552],100,44,hard,plus,dotcolour,beta,,,56,18,V,R,
299,47,5,7,2,33,47,1167,['n'],1,right,['2'],5,388,[-0.24563637],100,47,medium,plus,dotcolour,beta,,,56,18,V,R,
300,48,6,7,2,36,44,985,['n'],1,right,['2'],5,542,[-0.01426087],85,44,hard,plus,dotcolour,beta,,,56,18,V,R,
301,49,7,7,2,36,44,1182,['c'],0,right,['3'],4,403,[0.18194471],100,44,hard,plus,dotcolour,beta,,,56,18,V,R,
302,50,8,7,2,44,36,1134,['c'],1,left,['3'],4,790,[0.12842755],98,44,hard,plus,dotcolour,beta,,,56,18,V,R,
303,51,9,7,2,44,36,2417,['n'],0,left,['2'],5,791,[0.09839299],30,44,hard,plus,dotcolour,beta,,,56,18,V,R,
304,52,10,7,2,33,47,1567,['n'],1,right,['2'],5,465,[-0.21288164],100,47,medium,plus,dotcolour,beta,,,56,18,V,R,
305,53,11,7,2,27,53,833,['n'],1,right,['1'],6,551,[-0.24257032],100,53,easy,plus,dotcolour,beta,,,56,18,V,R,
306,54,12,7,2,27,53,834,['n'],1,right,['1'],6,257,[-0.15384566],100,53,easy,plus,dotcolour,beta,,,56,18,V,R,
307,55,13,7,2,33,47,584,['n'],1,right,['1'],6,337,[-0.19808841],100,47,medium,plus,dotcolour,beta,,,56,18,V,R,
308,56,14,7,2,44,36,1750,['c'],1,left,['3'],4,286,[0.11256598],100,44,hard,plus,dotcolour,beta,,,56,18,V,R,
309,57,15,7,2,47,33,1234,['c'],1,left,['3'],4,346,[0.22618969],100,47,medium,plus,dotcolour,beta,,,56,18,V,R,
310,58,16,7,2,27,53,785,['n'],1,right,['1'],6,302,[-0.07238967],99,53,easy,plus,dotcolour,beta,,,56,18,V,R,
311,59,17,7,2,36,44,883,['n'],1,right,['2'],5,568,[-0.21283791],100,44,hard,plus,dotcolour,beta,,,56,18,V,R,
312,60,18,7,2,47,33,1333,['c'],1,left,['3'],4,461,[0.13140766],99,47,medium,plus,dotcolour,beta,,,56,18,V,R,
313,61,19,7,2,33,47,751,['n'],1,right,['2'],5,310,[-0.06762035],98,47,medium,plus,dotcolour,beta,,,56,18,V,R,
314,62,20,7,2,53,27,1101,['c'],1,left,['2'],5,334,[0.11641333],100,53,easy,plus,dotcolour,beta,,,56,18,V,R,
315,63,21,7,2,27,53,750,['n'],1,right,['2'],5,372,[-0.11513078],99,53,easy,plus,dotcolour,beta,,,56,18,V,R,
316,64,22,7,2,47,33,1601,['c'],1,left,['3'],4,294,[0.10605592],100,47,medium,plus,dotcolour,beta,,,56,18,V,R,
317,65,23,7,2,47,33,851,['c'],1,left,['3'],4,449,[0.28503708],100,47,medium,plus,dotcolour,beta,,,56,18,V,R,
318,66,24,7,2,47,33,1367,['n'],0,left,['8'],3,1450,[0.21415196],9,47,medium,plus,dotcolour,beta,,,56,18,V,R,
319,67,25,7,2,36,44,1583,['c'],0,right,['3'],4,418,[-0.03743166],62,44,hard,plus,dotcolour,beta,,,56,18,V,R,
320,68,26,7,2,53,27,1134,['c'],1,left,['2'],5,453,[0.20909391],100,53,easy,plus,dotcolour,beta,,,56,18,V,R,
321,69,27,7,2,47,33,1600,['c'],1,left,['2'],5,492,[0.02654311],89,47,medium,plus,dotcolour,beta,,,56,18,V,R,
322,70,28,7,2,53,27,818,['c'],1,left,['1'],6,345,[0.12519508],100,53,easy,plus,dotcolour,beta,,,56,18,V,R,
323,71,29,7,2,27,53,1368,['n'],1,right,['2'],5,709,[-0.02455767],85,53,easy,plus,dotcolour,beta,,,56,18,V,R,
324,72,30,7,2,33,47,750,['n'],1,right,['1'],6,308,[-0.11693046],100,47,medium,plus,dotcolour,beta,,,56,18,V,R,
325,73,31,7,2,33,47,651,['n'],1,right,['1'],6,239,[-0.06832236],99,47,medium,plus,dotcolour,beta,,,56,18,V,R,
326,74,32,7,2,44,36,1101,['c'],1,left,['2'],5,314,[0.15264899],100,44,hard,plus,dotcolour,beta,,,56,18,V,R,
327,75,33,7,2,33,47,668,['n'],1,right,['1'],6,348,[-0.08886237],99,47,medium,plus,dotcolour,beta,,,56,18,V,R,
328,76,34,7,2,27,53,667,['n'],1,right,['1'],6,237,[-0.06574641],99,53,easy,plus,dotcolour,beta,,,56,18,V,R,
329,77,35,7,2,44,36,800,['n'],0,left,['1'],6,453,[-0.06597499],96,44,hard,plus,dotcolour,beta,,,56,18,V,R,
330,78,36,7,2,53,27,734,['c'],1,left,['2'],5,606,[0.19750063],100,53,easy,plus,dotcolour,beta,,,56,18,V,R,
331,79,37,7,2,44,36,1099,['c'],1,left,['3'],4,300,[0.07940357],99,44,hard,plus,dotcolour,beta,,,56,18,V,R,
332,80,38,7,2,47,33,1784,['c'],1,left,['3'],4,321,[0.18090422],100,47,medium,plus,dotcolour,beta,,,56,18,V,R,
333,81,39,7,2,36,44,1317,['c'],0,right,['3'],4,256,[0.08866496],99,44,hard,plus,dotcolour,beta,,,56,18,V,R,
334,82,40,7,2,53,27,900,['c'],1,left,['2'],5,291,[0.12350196],100,53,easy,plus,dotcolour,beta,,,56,18,V,R,
335,83,41,7,2,53,27,768,['c'],1,left,['1'],6,498,[0.13973062],99,53,easy,plus,dotcolour,beta,,,56,18,V,R,
336,84,0,8,2,47,33,1583,['c'],1,left,['2'],5,434,[0.16372044],100,47,medium,plus,dotcolour,beta,,,56,18,V,R,
337,85,1,8,2,47,33,768,['c'],1,left,['2'],5,348,[0.08125423],98,47,medium,plus,dotcolour,beta,,,56,18,V,R,
338,86,2,8,2,27,53,834,['n'],1,right,['2'],5,518,[-0.12161723],99,53,easy,plus,dotcolour,beta,,,56,18,V,R,
339,87,3,8,2,33,47,933,['n'],1,right,['3'],4,805,[-0.28903826],100,47,medium,plus,dotcolour,beta,,,56,18,V,R,
340,88,4,8,2,44,36,851,['c'],1,left,['3'],4,1004,[0.15389859],98,44,hard,plus,dotcolour,beta,,,56,18,V,R,
341,89,5,8,2,36,44,1001,['n'],1,right,['2'],5,492,[-0.12840059],99,44,hard,plus,dotcolour,beta,,,56,18,V,R,
342,90,6,8,2,27,53,784,['n'],1,right,['2'],5,322,[-0.06111278],98,53,easy,plus,dotcolour,beta,,,56,18,V,R,
343,91,7,8,2,33,47,933,['n'],1,right,['2'],5,345,[-0.1210996],100,47,medium,plus,dotcolour,beta,,,56,18,V,R,
344,92,8,8,2,53,27,1383,['c'],1,left,['3'],4,317,[0.05368778],97,53,easy,plus,dotcolour,beta,,,56,18,V,R,
345,93,9,8,2,36,44,1384,['n'],1,right,['2'],5,651,[-0.12063111],98,44,hard,plus,dotcolour,beta,,,56,18,V,R,
346,94,10,8,2,44,36,1768,['c'],1,left,['3'],4,339,[0.04599963],96,44,hard,plus,dotcolour,beta,,,56,18,V,R,
347,95,11,8,2,33,47,1534,['n'],1,right,['2'],5,345,[-0.17332721],100,47,medium,plus,dotcolour,beta,,,56,18,V,R,
348,96,12,8,2,33,47,785,['n'],1,right,['2'],5,229,[-0.0259457],96,47,medium,plus,dotcolour,beta,,,56,18,V,R,
349,97,13,8,2,53,27,1234,['c'],1,left,['2'],5,404,[0.17712067],100,53,easy,plus,dotcolour,beta,,,56,18,V,R,
350,98,14,8,2,36,44,1468,['c'],0,right,['2'],5,233,[0.02622173],95,44,hard,plus,dotcolour,beta,,,56,18,V,R,
351,99,15,8,2,47,33,867,['c'],1,left,['2'],5,447,[0.15455354],100,47,medium,plus,dotcolour,beta,,,56,18,V,R,
352,100,16,8,2,53,27,785,['c'],1,left,['1'],6,303,[0.12952345],100,53,easy,plus,dotcolour,beta,,,56,18,V,R,
353,101,17,8,2,36,44,885,['n'],1,right,['1'],6,289,[-0.07929217],99,44,hard,plus,dotcolour,beta,,,56,18,V,R,
354,102,18,8,2,53,27,967,['n'],0,left,['2'],5,344,[0.0369065],64,53,easy,plus,dotcolour,beta,,,56,18,V,R,
355,103,19,8,2,33,47,1600,['n'],1,right,['3'],4,1186,[-0.45922179],100,47,medium,plus,dotcolour,beta,,,56,18,V,R,
356,104,20,8,2,44,36,850,['n'],0,left,['1'],6,331,[-0.02095766],92,44,hard,plus,dotcolour,beta,,,56,18,V,R,
357,105,21,8,2,44,36,1182,['n'],0,left,['2'],5,214,[-0.03465372],97,44,hard,plus,dotcolour,beta,,,56,18,V,R,
358,106,22,8,2,36,44,818,['n'],1,right,['2'],5,214,[-0.0957386],100,44,hard,plus,dotcolour,beta,,,56,18,V,R,
359,107,23,8,2,44,36,1266,['n'],0,left,['3'],4,285,[-0.12668842],100,44,hard,plus,dotcolour,beta,,,56,18,V,R,
360,108,24,8,2,27,53,851,['n'],1,right,['3'],4,553,[-0.17275614],100,53,easy,plus,dotcolour,beta,,,56,18,V,R,
361,109,25,8,2,47,33,984,['n'],0,left,['0'],1,1124,[0.0546047],50,47,medium,plus,dotcolour,beta,,,56,18,V,R,
362,110,26,8,2,44,36,1000,['c'],1,left,['2'],5,433,[0.09309861],98,44,hard,plus,dotcolour,beta,,,56,18,V,R,
363,111,27,8,2,53,27,1234,['c'],1,left,['3'],4,391,[0.05452341],96,53,easy,plus,dotcolour,beta,,,56,18,V,R,
364,112,28,8,2,36,44,884,['n'],1,right,['1'],6,597,[-0.2256093],100,44,hard,plus,dotcolour,beta,,,56,18,V,R,
365,113,29,8,2,27,53,751,['n'],1,right,['1'],6,233,[-0.04055623],97,53,easy,plus,dotcolour,beta,,,56,18,V,R,
366,114,30,8,2,47,33,1785,['c'],1,left,['1'],6,817,[0.21687555],100,47,medium,plus,dotcolour,beta,,,56,18,V,R,
367,115,31,8,2,36,44,900,['n'],1,right,['2'],5,333,[-0.03808951],95,44,hard,plus,dotcolour,beta,,,56,18,V,R,
368,116,32,8,2,47,33,968,['c'],1,left,['2'],5,282,[0.15725502],100,47,medium,plus,dotcolour,beta,,,56,18,V,R,
369,117,33,8,2,44,36,1334,['n'],0,left,['3'],4,243,[-0.06669032],99,44,hard,plus,dotcolour,beta,,,56,18,V,R,
370,118,34,8,2,47,33,884,['n'],0,left,['2'],5,527,[0.08381377],33,47,medium,plus,dotcolour,beta,,,56,18,V,R,
371,119,35,8,2,53,27,1052,['c'],1,left,['2'],5,569,[0.17916024],100,53,easy,plus,dotcolour,beta,,,56,18,V,R,
372,120,36,8,2,33,47,1318,['c'],0,right,['3'],4,271,[0.05069905],98,47,medium,plus,dotcolour,beta,,,56,18,V,R,
373,121,37,8,2,33,47,801,['n'],1,right,['2'],5,252,[-0.03216217],96,47,medium,plus,dotcolour,beta,,,56,18,V,R,
374,122,38,8,2,27,53,2433,['n'],1,right,['3'],4,258,[-0.15172392],100,53,easy,plus,dotcolour,beta,,,56,18,V,R,
375,123,39,8,2,53,27,1116,['c'],1,left,['2'],5,462,[0.03269345],91,53,easy,plus,dotcolour,beta,,,56,18,V,R,
376,124,40,8,2,27,53,916,['n'],1,right,['2'],5,383,[-0.18578745],100,53,easy,plus,dotcolour,beta,,,56,18,V,R,
377,125,41,8,2,27,53,1048,['n'],1,right,['2'],5,512,[-0.19964677],100,53,easy,plus,dotcolour,beta,,,56,18,V,R,
378,0,0,9,3,53,27,1885,['n'],0,left,['3'],4,286,[0.01776486],8,53,easy,minus,dotcolour,beta,,,56,18,V,R,
379,1,1,9,3,33,47,1151,['c'],0,right,['3'],4,255,[0.00985448],16,47,medium,minus,dotcolour,beta,,,56,18,V,R,
380,2,2,9,3,27,53,783,['n'],1,right,['2'],5,294,[-0.09564602],79,53,easy,minus,dotcolour,beta,,,56,18,V,R,
381,3,3,9,3,27,53,667,['n'],1,right,['1'],6,280,[-0.19358064],99,53,easy,minus,dotcolour,beta,,,56,18,V,R,
382,4,4,9,3,47,33,919,['c'],1,left,['2'],5,457,[0.09710556],75,47,medium,minus,dotcolour,beta,,,56,18,V,R,
383,5,5,9,3,44,36,1135,['c'],1,left,['2'],5,339,[0.06074925],54,44,hard,minus,dotcolour,beta,,,56,18,V,R,
384,6,6,9,3,33,47,767,['n'],1,right,['1'],6,240,[-0.00266195],13,47,medium,minus,dotcolour,beta,,,56,18,V,R,
385,7,7,9,3,36,44,884,['n'],1,right,['2'],5,548,[-0.10521095],77,44,hard,minus,dotcolour,beta,,,56,18,V,R,
386,8,8,9,3,36,44,851,['n'],1,right,['2'],5,221,[-0.10140617],85,44,hard,minus,dotcolour,beta,,,56,18,V,R,
387,9,9,9,3,36,44,1216,['c'],0,right,['3'],4,389,[-0.0280599],8,44,hard,minus,dotcolour,beta,,,56,18,V,R,
388,10,10,9,3,36,44,1418,['n'],1,right,['3'],4,261,[-0.03924218],36,44,hard,minus,dotcolour,beta,,,56,18,V,R,
389,11,11,9,3,33,47,819,['n'],1,right,['3'],4,539,[-0.12713987],85,47,medium,minus,dotcolour,beta,,,56,18,V,R,
390,12,12,9,3,53,27,1100,['n'],0,left,['3'],4,418,[-0.07482158],63,53,easy,minus,dotcolour,beta,,,56,18,V,R,
391,13,13,9,3,53,27,1233,['c'],1,left,['2'],5,665,[0.16223952],91,53,easy,minus,dotcolour,beta,,,56,18,V,R,
392,14,14,9,3,36,44,1217,['c'],0,right,['2'],5,319,[-0.00793441],12,44,hard,minus,dotcolour,beta,,,56,18,V,R,
393,15,15,9,3,44,36,1983,['c'],1,left,['2'],5,309,[0.12696247],91,44,hard,minus,dotcolour,beta,,,56,18,V,R,
394,16,16,9,3,44,36,868,['n'],0,left,['2'],5,246,[-0.06548394],59,44,hard,minus,dotcolour,beta,,,56,18,V,R,
395,17,17,9,3,36,44,834,['n'],1,right,['2'],5,180,[-0.04880806],43,44,hard,minus,dotcolour,beta,,,56,18,V,R,
396,18,18,9,3,27,53,784,['n'],1,right,['3'],4,279,[-0.14246968],95,53,easy,minus,dotcolour,beta,,,56,18,V,R,
397,19,19,9,3,44,36,1084,['c'],1,left,['3'],4,274,[0.13941265],95,44,hard,minus,dotcolour,beta,,,56,18,V,R,
398,20,20,9,3,33,47,1166,['n'],1,right,['3'],4,314,[0.04911882],3,47,medium,minus,dotcolour,beta,,,56,18,V,R,
399,21,21,9,3,44,36,1035,['c'],1,left,['2'],5,573,[0.1685191],94,44,hard,minus,dotcolour,beta,,,56,18,V,R,
400,22,22,9,3,47,33,917,['n'],0,left,['3'],4,242,[-0.06896623],62,47,medium,minus,dotcolour,beta,,,56,18,V,R,
401,23,23,9,3,33,47,1384,['n'],1,right,['3'],4,1154,[-0.29776585],98,47,medium,minus,dotcolour,beta,,,56,18,V,R,
402,24,24,9,3,44,36,1350,['n'],0,left,['3'],4,247,[-0.05932842],53,44,hard,minus,dotcolour,beta,,,56,18,V,R,
403,25,25,9,3,33,47,766,['n'],1,right,['3'],4,289,[-0.14317208],95,47,medium,minus,dotcolour,beta,,,56,18,V,R,
404,26,26,9,3,47,33,834,['c'],1,left,['2'],5,307,[0.08587334],73,47,medium,minus,dotcolour,beta,,,56,18,V,R,
405,27,27,9,3,33,47,835,['n'],1,right,['2'],5,303,[-0.13767141],94,47,medium,minus,dotcolour,beta,,,56,18,V,R,
406,28,28,9,3,47,33,1199,['n'],0,left,['3'],4,381,[-0.17660122],97,47,medium,minus,dotcolour,beta,,,56,18,V,R,
407,29,29,9,3,47,33,1767,['c'],1,left,['3'],4,287,[0.08127213],70,47,medium,minus,dotcolour,beta,,,56,18,V,R,
408,30,30,9,3,27,53,1268,['n'],1,right,['2'],5,682,[-0.17232817],93,53,easy,minus,dotcolour,beta,,,56,18,V,R,
409,31,31,9,3,53,27,1017,['c'],1,left,['2'],5,279,[0.15165384],96,53,easy,minus,dotcolour,beta,,,56,18,V,R,
410,32,32,9,3,36,44,968,['n'],1,right,['1'],6,255,[-0.00920093],16,44,hard,minus,dotcolour,beta,,,56,18,V,R,
411,33,33,9,3,27,53,1300,['c'],0,right,['2'],5,354,[0.01113314],21,53,easy,minus,dotcolour,beta,,,56,18,V,R,
412,34,34,9,3,27,53,2501,['n'],1,right,['2'],5,264,[-0.05752765],52,53,easy,minus,dotcolour,beta,,,56,18,V,R,
413,35,35,9,3,53,27,951,['c'],1,left,['2'],5,392,[0.03002982],32,53,easy,minus,dotcolour,beta,,,56,18,V,R,
414,36,36,9,3,27,53,783,['n'],1,right,['2'],5,315,[-0.12806002],91,53,easy,minus,dotcolour,beta,,,56,18,V,R,
415,37,37,9,3,47,33,817,['c'],1,left,['2'],5,286,[-0.01222155],9,47,medium,minus,dotcolour,beta,,,56,18,V,R,
416,38,38,9,3,53,27,1067,['n'],0,left,['3'],4,265,[-0.03981049],37,53,easy,minus,dotcolour,beta,,,56,18,V,R,
417,39,39,9,3,47,33,816,['n'],0,left,['3'],4,271,[-0.10110422],83,47,medium,minus,dotcolour,beta,,,56,18,V,R,
418,40,40,9,3,53,27,1317,['c'],1,left,['3'],4,288,[0.10518649],84,53,easy,minus,dotcolour,beta,,,56,18,V,R,
419,41,41,9,3,44,36,933,['c'],1,left,['8'],3,1209,[0.25530989],96,44,hard,minus,dotcolour,beta,,,56,18,V,R,
420,42,0,10,3,27,53,1453,['n'],1,right,['2'],5,252,[-0.11570037],90,53,easy,minus,dotcolour,beta,,,56,18,V,R,
421,43,1,10,3,44,36,1033,['n'],0,left,['3'],4,235,[0.01600717],7,44,hard,minus,dotcolour,beta,,,56,18,V,R,
422,44,2,10,3,33,47,1651,['n'],1,right,['3'],4,304,[-0.12036388],89,47,medium,minus,dotcolour,beta,,,56,18,V,R,
423,45,3,10,3,47,33,819,['c'],1,left,['3'],4,332,[0.14256036],94,47,medium,minus,dotcolour,beta,,,56,18,V,R,
424,46,4,10,3,47,33,2601,['n'],0,left,['9'],2,1288,[0.25249118],1,47,medium,minus,dotcolour,beta,,,56,18,V,R,
425,47,5,10,3,53,27,766,['c'],1,left,['3'],4,463,[0.05637128],51,53,easy,minus,dotcolour,beta,,,56,18,V,R,
426,48,6,10,3,47,33,1350,['c'],1,left,['2'],5,327,[0.09058142],75,47,medium,minus,dotcolour,beta,,,56,18,V,R,
427,49,7,10,3,47,33,951,['c'],1,left,['2'],5,326,[0.15796398],96,47,medium,minus,dotcolour,beta,,,56,18,V,R,
428,50,8,10,3,36,44,835,['n'],1,right,['2'],5,289,[-0.11066147],86,44,hard,minus,dotcolour,beta,,,56,18,V,R,
429,51,9,10,3,33,47,1201,['n'],1,right,['2'],5,1006,[-0.25333294],97,47,medium,minus,dotcolour,beta,,,56,18,V,R,
430,52,10,10,3,36,44,782,['n'],1,right,['2'],5,255,[-0.08229975],72,44,hard,minus,dotcolour,beta,,,56,18,V,R,
431,53,11,10,3,47,33,917,['c'],1,left,['2'],5,329,[0.19992464],99,47,medium,minus,dotcolour,beta,,,56,18,V,R,
432,54,12,10,3,36,44,851,['n'],1,right,['2'],5,339,[0.01124872],11,44,hard,minus,dotcolour,beta,,,56,18,V,R,
433,55,13,10,3,53,27,1301,['c'],1,left,['1'],6,283,[0.13339962],93,53,easy,minus,dotcolour,beta,,,56,18,V,R,
434,56,14,10,3,36,44,1233,['n'],1,right,['2'],5,231,[-0.10487016],86,44,hard,minus,dotcolour,beta,,,56,18,V,R,
435,57,15,10,3,47,33,1067,['n'],0,left,['3'],4,301,[-0.11017944],86,47,medium,minus,dotcolour,beta,,,56,18,V,R,
436,58,16,10,3,36,44,1167,['c'],0,right,['3'],4,283,[0.07282921],64,44,hard,minus,dotcolour,beta,,,56,18,V,R,
437,59,17,10,3,36,44,1200,['n'],1,right,['3'],4,297,[-0.08872682],75,44,hard,minus,dotcolour,beta,,,56,18,V,R,
438,60,18,10,3,27,53,1183,['n'],1,right,['2'],5,335,[-0.22255343],99,53,easy,minus,dotcolour,beta,,,56,18,V,R,
439,61,19,10,3,33,47,833,['n'],1,right,['2'],5,242,[-0.08739317],76,47,medium,minus,dotcolour,beta,,,56,18,V,R,
440,62,20,10,3,36,44,1200,['n'],1,right,['3'],4,321,[-0.00521399],17,44,hard,minus,dotcolour,beta,,,56,18,V,R,
441,63,21,10,3,53,27,950,['c'],1,left,['2'],5,440,[0.17132529],96,53,easy,minus,dotcolour,beta,,,56,18,V,R,
442,64,22,10,3,27,53,916,['n'],1,right,['1'],6,322,[-0.0877373],74,53,easy,minus,dotcolour,beta,,,56,18,V,R,
443,65,23,10,3,44,36,1134,['c'],1,left,['2'],5,305,[0.09070222],76,44,hard,minus,dotcolour,beta,,,56,18,V,R,
444,66,24,10,3,44,36,1368,['c'],1,left,['2'],5,759,[0.28150392],99,44,hard,minus,dotcolour,beta,,,56,18,V,R,
445,67,25,10,3,53,27,1651,['c'],1,left,['2'],5,255,[0.10700466],86,53,easy,minus,dotcolour,beta,,,56,18,V,R,
446,68,26,10,3,27,53,801,['n'],1,right,['1'],6,254,[-0.01917643],21,53,easy,minus,dotcolour,beta,,,56,18,V,R,
447,69,27,10,3,53,27,883,['n'],0,left,['1'],6,241,[-0.01651749],19,53,easy,minus,dotcolour,beta,,,56,18,V,R,
448,70,28,10,3,53,27,1116,['c'],1,left,['2'],5,284,[0.12246326],91,53,easy,minus,dotcolour,beta,,,56,18,V,R,
449,71,29,10,3,33,47,935,['n'],1,right,['2'],5,333,[-0.09658909],78,47,medium,minus,dotcolour,beta,,,56,18,V,R,
450,72,30,10,3,33,47,833,['n'],1,right,['2'],5,312,[-0.06313844],56,47,medium,minus,dotcolour,beta,,,56,18,V,R,
451,73,31,10,3,44,36,1151,['n'],0,left,['3'],4,399,[-0.04787432],45,44,hard,minus,dotcolour,beta,,,56,18,V,R,
452,74,32,10,3,33,47,818,['n'],1,right,['3'],4,287,[-0.04243751],39,47,medium,minus,dotcolour,beta,,,56,18,V,R,
453,75,33,10,3,44,36,967,['n'],0,left,['3'],4,262,[-0.14194131],95,44,hard,minus,dotcolour,beta,,,56,18,V,R,
454,76,34,10,3,27,53,850,['n'],1,right,['2'],5,331,[-0.13673776],93,53,easy,minus,dotcolour,beta,,,56,18,V,R,
455,77,35,10,3,27,53,616,['n'],1,right,['1'],6,286,[-0.17318462],98,53,easy,minus,dotcolour,beta,,,56,18,V,R,
456,78,36,10,3,27,53,750,['n'],1,right,['1'],6,318,[-0.0729471],64,53,easy,minus,dotcolour,beta,,,56,18,V,R,
457,79,37,10,3,44,36,1016,['n'],0,left,['2'],5,218,[-0.05469545],49,44,hard,minus,dotcolour,beta,,,56,18,V,R,
458,80,38,10,3,33,47,600,['n'],1,right,['1'],6,267,[-0.19425227],99,47,medium,minus,dotcolour,beta,,,56,18,V,R,
459,81,39,10,3,44,36,733,['n'],0,left,['1'],6,212,[0.00972714],7,44,hard,minus,dotcolour,beta,,,56,18,V,R,
460,82,40,10,3,53,27,834,['c'],1,left,['1'],6,379,[0.02140914],27,53,easy,minus,dotcolour,beta,,,56,18,V,R,
461,83,41,10,3,47,33,1050,['c'],1,left,['3'],4,291,[0.07507834],66,47,medium,minus,dotcolour,beta,,,56,18,V,R,
462,84,0,11,3,33,47,1085,['n'],1,right,['1'],6,283,[0.00318786],12,47,medium,minus,dotcolour,beta,,,56,18,V,R,
463,85,1,11,3,36,44,868,['n'],1,right,['2'],5,343,[-0.03360835],34,44,hard,minus,dotcolour,beta,,,56,18,V,R,
464,86,2,11,3,33,47,649,['n'],1,right,['2'],5,248,[-0.125707],93,47,medium,minus,dotcolour,beta,,,56,18,V,R,
465,87,3,11,3,27,53,599,['n'],1,right,['2'],5,329,[-0.10049661],80,53,easy,minus,dotcolour,beta,,,56,18,V,R,
466,88,4,11,3,36,44,867,['n'],1,right,['3'],4,681,[-0.13392655],85,44,hard,minus,dotcolour,beta,,,56,18,V,R,
467,89,5,11,3,33,47,666,['n'],1,right,['1'],6,276,[-0.10925971],86,47,medium,minus,dotcolour,beta,,,56,18,V,R,
468,90,6,11,3,27,53,666,['n'],1,right,['1'],6,433,[-0.13869694],91,53,easy,minus,dotcolour,beta,,,56,18,V,R,
469,91,7,11,3,53,27,1116,['c'],1,left,['3'],4,339,[0.10582224],83,53,easy,minus,dotcolour,beta,,,56,18,V,R,
470,92,8,11,3,44,36,1201,['c'],1,left,['8'],3,1430,[0.13042443],76,44,hard,minus,dotcolour,beta,,,56,18,V,R,
471,93,9,11,3,47,33,1583,['n'],0,left,['3'],4,238,[0.01570061],7,47,medium,minus,dotcolour,beta,,,56,18,V,R,
472,94,10,11,3,53,27,1283,['c'],1,left,['3'],4,307,[0.00478499],16,53,easy,minus,dotcolour,beta,,,56,18,V,R,
473,95,11,11,3,27,53,1717,['n'],1,right,['1'],6,315,[-0.12988588],92,53,easy,minus,dotcolour,beta,,,56,18,V,R,
474,96,12,11,3,53,27,1402,['c'],1,left,['2'],5,375,[0.02329209],28,53,easy,minus,dotcolour,beta,,,56,18,V,R,
475,97,13,11,3,47,33,1067,['c'],1,left,['2'],5,255,[0.05720745],51,47,medium,minus,dotcolour,beta,,,56,18,V,R,
476,98,14,11,3,47,33,950,['c'],1,left,['2'],5,559,[0.08261343],66,47,medium,minus,dotcolour,beta,,,56,18,V,R,
477,99,15,11,3,47,33,768,['n'],0,left,['2'],5,340,[-0.01661732],23,47,medium,minus,dotcolour,beta,,,56,18,V,R,
478,100,16,11,3,36,44,999,['c'],0,right,['2'],5,350,[0.02837983],30,44,hard,minus,dotcolour,beta,,,56,18,V,R,
479,101,17,11,3,44,36,1366,['n'],0,left,['3'],4,427,[-0.09949574],77,44,hard,minus,dotcolour,beta,,,56,18,V,R,
480,102,18,11,3,36,44,1216,['c'],0,right,['9'],2,1547,[0.10365032],67,44,hard,minus,dotcolour,beta,,,56,18,V,R,
481,103,19,11,3,27,53,1235,['n'],1,right,['2'],5,684,[-0.05557552],50,53,easy,minus,dotcolour,beta,,,56,18,V,R,
482,104,20,11,3,27,53,833,['n'],1,right,['1'],6,353,[-0.21717663],99,53,easy,minus,dotcolour,beta,,,56,18,V,R,
483,105,21,11,3,53,27,1101,['c'],1,left,['3'],4,319,[0.16179489],97,53,easy,minus,dotcolour,beta,,,56,18,V,R,
484,106,22,11,3,44,36,1067,['n'],0,left,['3'],4,337,[-0.11667037],87,44,hard,minus,dotcolour,beta,,,56,18,V,R,
485,107,23,11,3,33,47,967,['c'],0,right,['3'],4,270,[0.02801599],28,47,medium,minus,dotcolour,beta,,,56,18,V,R,
486,108,24,11,3,36,44,2133,['n'],1,right,['8'],3,383,[-0.16500832],96,44,hard,minus,dotcolour,beta,,,56,18,V,R,
487,109,25,11,3,27,53,1251,['c'],0,right,['0'],1,1487,[-0.4495636],0,53,easy,minus,dotcolour,beta,,,56,18,V,R,
488,110,26,11,3,27,53,1351,['n'],1,right,['2'],5,367,[-0.10097801],79,53,easy,minus,dotcolour,beta,,,56,18,V,R,
489,111,27,11,3,33,47,816,['n'],1,right,['2'],5,394,[-0.06362416],56,47,medium,minus,dotcolour,beta,,,56,18,V,R,
490,112,28,11,3,44,36,1152,['c'],1,left,['3'],4,316,[0.15988897],97,44,hard,minus,dotcolour,beta,,,56,18,V,R,
491,113,29,11,3,33,47,983,['n'],1,right,['2'],5,346,[-0.09729979],78,47,medium,minus,dotcolour,beta,,,56,18,V,R,
492,114,30,11,3,47,33,1001,['c'],1,left,['2'],5,372,[0.09683522],77,47,medium,minus,dotcolour,beta,,,56,18,V,R,
493,115,31,11,3,44,36,850,['n'],0,left,['2'],5,292,[-0.15714787],97,44,hard,minus,dotcolour,beta,,,56,18,V,R,
494,116,32,11,3,53,27,784,['c'],1,left,['1'],6,330,[0.0723776],63,53,easy,minus,dotcolour,beta,,,56,18,V,R,
495,117,33,11,3,36,44,783,['n'],1,right,['1'],6,344,[0.00174421],15,44,hard,minus,dotcolour,beta,,,56,18,V,R,
496,118,34,11,3,36,44,800,['n'],1,right,['2'],5,284,[-0.00867078],17,44,hard,minus,dotcolour,beta,,,56,18,V,R,
497,119,35,11,3,44,36,950,['c'],1,left,['2'],5,379,[0.18511922],98,44,hard,minus,dotcolour,beta,,,56,18,V,R,
498,120,36,11,3,47,33,983,['n'],0,left,['0'],1,1109,[0.02829635],19,47,medium,minus,dotcolour,beta,,,56,18,V,R,
499,121,37,11,3,53,27,1033,['c'],1,left,['2'],5,441,[0.13348536],89,53,easy,minus,dotcolour,beta,,,56,18,V,R,
500,122,38,11,3,53,27,1201,['n'],0,left,['2'],5,376,[-0.17851481],97,53,easy,minus,dotcolour,beta,,,56,18,V,R,
501,123,39,11,3,33,47,783,['n'],1,right,['2'],5,299,[-0.05668156],51,47,medium,minus,dotcolour,beta,,,56,18,V,R,
502,124,40,11,3,44,36,1267,['c'],1,left,['3'],4,325,[0.12463814],90,44,hard,minus,dotcolour,beta,,,56,18,V,R,
503,125,41,11,3,47,33,1500,['c'],1,left,['2'],5,310,[0.10460154],83,47,medium,minus,dotcolour,beta,,,56,18,V,R,
504,0,0,12,4,53,27,2367,['n'],0,left,['3'],4,326,[-0.08232299],99,53,easy,plus,dotcolour,beta,,,56,18,V,R,
505,1,1,12,4,33,47,917,['n'],1,right,['2'],5,285,[-0.0826414],99,47,medium,plus,dotcolour,beta,,,56,18,V,R,
506,2,2,12,4,47,33,1517,['n'],0,left,['3'],4,1327,[-0.0510559],84,47,medium,plus,dotcolour,beta,,,56,18,V,R,
507,3,3,12,4,44,36,1167,['n'],0,left,['2'],5,364,[-0.06939025],98,44,hard,plus,dotcolour,beta,,,56,18,V,R,
508,4,4,12,4,53,27,1517,['c'],1,left,['2'],5,402,[0.14151244],100,53,easy,plus,dotcolour,beta,,,56,18,V,R,
509,5,5,12,4,33,47,718,['n'],1,right,['1'],6,375,[-0.16087587],100,47,medium,plus,dotcolour,beta,,,56,18,V,R,
510,6,6,12,4,47,33,1084,['n'],0,left,['1'],6,286,[-0.06061634],98,47,medium,plus,dotcolour,beta,,,56,18,V,R,
511,7,7,12,4,27,53,1000,['n'],1,right,['1'],6,331,[-0.09900447],99,53,easy,plus,dotcolour,beta,,,56,18,V,R,
512,8,8,12,4,36,44,800,['n'],1,right,['1'],6,263,[-0.09943065],100,44,hard,plus,dotcolour,beta,,,56,18,V,R,
513,9,9,12,4,47,33,1500,['n'],0,left,['2'],5,282,[-0.12001508],100,47,medium,plus,dotcolour,beta,,,56,18,V,R,
514,10,10,12,4,33,47,850,['n'],1,right,['1'],6,286,[-0.08388457],99,47,medium,plus,dotcolour,beta,,,56,18,V,R,
515,11,11,12,4,33,47,1000,['n'],1,right,['1'],6,340,[-0.18533831],100,47,medium,plus,dotcolour,beta,,,56,18,V,R,
516,12,12,12,4,27,53,835,['n'],1,right,['1'],6,325,[0.01419382],79,53,easy,plus,dotcolour,beta,,,56,18,V,R,
517,13,13,12,4,36,44,767,['n'],1,right,['1'],6,283,[-0.06449847],98,44,hard,plus,dotcolour,beta,,,56,18,V,R,
518,14,14,12,4,44,36,1334,['c'],1,left,['2'],5,347,[0.02157296],91,44,hard,plus,dotcolour,beta,,,56,18,V,R,
519,15,15,12,4,44,36,716,['n'],0,left,['1'],6,346,[-0.08475653],99,44,hard,plus,dotcolour,beta,,,56,18,V,R,
520,16,16,12,4,53,27,983,['c'],1,left,['1'],6,358,[0.12579029],100,53,easy,plus,dotcolour,beta,,,56,18,V,R,
521,17,17,12,4,33,47,752,['n'],1,right,['1'],6,347,[-0.07394368],98,47,medium,plus,dotcolour,beta,,,56,18,V,R,
522,18,18,12,4,36,44,848,['n'],1,right,['1'],6,350,[-0.01442941],89,44,hard,plus,dotcolour,beta,,,56,18,V,R,
523,19,19,12,4,36,44,885,['n'],1,right,['1'],6,364,[-0.16794205],100,44,hard,plus,dotcolour,beta,,,56,18,V,R,
524,20,20,12,4,27,53,750,['n'],1,right,['1'],6,505,[-0.12052913],99,53,easy,plus,dotcolour,beta,,,56,18,V,R,
525,21,21,12,4,47,33,1033,['c'],1,left,['3'],4,1412,[0.26055757],99,47,medium,plus,dotcolour,beta,,,56,18,V,R,
526,22,22,12,4,27,53,868,['n'],1,right,['1'],6,242,[-0.12010845],100,53,easy,plus,dotcolour,beta,,,56,18,V,R,
527,23,23,12,4,44,36,883,['c'],1,left,['2'],5,358,[0.12896918],100,44,hard,plus,dotcolour,beta,,,56,18,V,R,
528,24,24,12,4,53,27,1468,['c'],1,left,['2'],5,342,[0.05040558],96,53,easy,plus,dotcolour,beta,,,56,18,V,R,
529,25,25,12,4,36,44,834,['n'],1,right,['1'],6,337,[-0.13939785],100,44,hard,plus,dotcolour,beta,,,56,18,V,R,
530,26,26,12,4,47,33,1084,['c'],1,left,['1'],6,336,[0.01881235],91,47,medium,plus,dotcolour,beta,,,56,18,V,R,
531,27,27,12,4,47,33,1234,['n'],0,left,['1'],6,427,[0.04203748],59,47,medium,plus,dotcolour,beta,,,56,18,V,R,
532,28,28,12,4,27,53,667,['n'],1,right,['1'],6,224,[-0.03428839],97,53,easy,plus,dotcolour,beta,,,56,18,V,R,
533,29,29,12,4,36,44,884,['n'],1,right,['1'],6,316,[0.03620779],65,44,hard,plus,dotcolour,beta,,,56,18,V,R,
534,30,30,12,4,53,27,884,['c'],1,left,['2'],5,390,[0.07001432],97,53,easy,plus,dotcolour,beta,,,56,18,V,R,
535,31,31,12,4,33,47,734,['n'],1,right,['2'],5,298,[-0.11003552],100,47,medium,plus,dotcolour,beta,,,56,18,V,R,
536,32,32,12,4,53,27,882,['c'],1,left,['2'],5,517,[0.10316957],98,53,easy,plus,dotcolour,beta,,,56,18,V,R,
537,33,33,12,4,44,36,1167,['n'],0,left,['3'],4,218,[-0.04516981],98,44,hard,plus,dotcolour,beta,,,56,18,V,R,
538,34,34,12,4,53,27,801,['c'],1,left,['2'],5,315,[0.07487796],98,53,easy,plus,dotcolour,beta,,,56,18,V,R,
539,35,35,12,4,36,44,816,['n'],1,right,['2'],5,231,[-0.05276551],98,44,hard,plus,dotcolour,beta,,,56,18,V,R,
540,36,36,12,4,44,36,817,['n'],0,left,['2'],5,214,[-0.1083965],100,44,hard,plus,dotcolour,beta,,,56,18,V,R,
541,37,37,12,4,33,47,600,['n'],1,right,['1'],6,239,[-0.06015213],99,47,medium,plus,dotcolour,beta,,,56,18,V,R,
542,38,38,12,4,44,36,1033,['n'],0,left,['3'],4,253,[-0.07607876],99,44,hard,plus,dotcolour,beta,,,56,18,V,R,
543,39,39,12,4,27,53,733,['n'],1,right,['1'],6,495,[-0.10014374],98,53,easy,plus,dotcolour,beta,,,56,18,V,R,
544,40,40,12,4,27,53,683,['n'],1,right,['1'],6,209,[-0.07666519],99,53,easy,plus,dotcolour,beta,,,56,18,V,R,
545,41,41,12,4,47,33,817,['c'],1,left,['2'],5,321,[0.08478968],99,47,medium,plus,dotcolour,beta,,,56,18,V,R,
546,42,0,13,4,44,36,984,['n'],0,left,['3'],4,247,[-0.00200914],89,44,hard,plus,dotcolour,beta,,,56,18,V,R,
547,43,1,13,4,27,53,684,['n'],1,right,['1'],6,226,[-0.03791524],97,53,easy,plus,dotcolour,beta,,,56,18,V,R,
548,44,2,13,4,53,27,999,['c'],1,left,['2'],5,315,[0.07959711],99,53,easy,plus,dotcolour,beta,,,56,18,V,R,
549,45,3,13,4,47,33,984,['c'],1,left,['2'],5,304,[0.12206861],100,47,medium,plus,dotcolour,beta,,,56,18,V,R,
550,46,4,13,4,33,47,784,['n'],1,right,['2'],5,366,[-0.13480407],100,47,medium,plus,dotcolour,beta,,,56,18,V,R,
551,47,5,13,4,44,36,885,['n'],0,left,['2'],5,300,[0.01209525],81,44,hard,plus,dotcolour,beta,,,56,18,V,R,
552,48,6,13,4,27,53,783,['n'],1,right,['1'],6,283,[-0.04173684],96,53,easy,plus,dotcolour,beta,,,56,18,V,R,
553,49,7,13,4,36,44,1051,['n'],1,right,['3'],4,248,[-0.09367861],100,44,hard,plus,dotcolour,beta,,,56,18,V,R,
554,50,8,13,4,44,36,950,['n'],0,left,['8'],3,800,[-0.10754506],96,44,hard,plus,dotcolour,beta,,,56,18,V,R,
555,51,9,13,4,47,33,1301,['c'],1,left,['3'],4,349,[0.18886021],100,47,medium,plus,dotcolour,beta,,,56,18,V,R,
556,52,10,13,4,33,47,867,['n'],1,right,['1'],6,229,[-0.10824671],100,47,medium,plus,dotcolour,beta,,,56,18,V,R,
557,53,11,13,4,36,44,735,['n'],1,right,['1'],6,256,[-0.21602424],100,44,hard,plus,dotcolour,beta,,,56,18,V,R,
558,54,12,13,4,27,53,784,['n'],1,right,['1'],6,255,[-0.12552417],100,53,easy,plus,dotcolour,beta,,,56,18,V,R,
559,55,13,13,4,27,53,751,['n'],1,right,['1'],6,448,[-0.09467025],98,53,easy,plus,dotcolour,beta,,,56,18,V,R,
560,56,14,13,4,53,27,784,['c'],1,left,['1'],6,296,[0.08138741],99,53,easy,plus,dotcolour,beta,,,56,18,V,R,
561,57,15,13,4,47,33,783,['n'],0,left,['1'],6,270,[-0.02701776],95,47,medium,plus,dotcolour,beta,,,56,18,V,R,
562,58,16,13,4,36,44,668,['n'],1,right,['1'],6,282,[-0.10491775],100,44,hard,plus,dotcolour,beta,,,56,18,V,R,
563,59,17,13,4,53,27,1050,['n'],0,left,['3'],4,206,[-0.05836538],99,53,easy,plus,dotcolour,beta,,,56,18,V,R,
564,60,18,13,4,27,53,717,['n'],1,right,['1'],6,290,[-0.1633101],100,53,easy,plus,dotcolour,beta,,,56,18,V,R,
565,61,19,13,4,36,44,685,['n'],1,right,['1'],6,267,[0.03178034],70,44,hard,plus,dotcolour,beta,,,56,18,V,R,
566,62,20,13,4,44,36,884,['n'],0,left,['3'],4,327,[-0.10042087],99,44,hard,plus,dotcolour,beta,,,56,18,V,R,
567,63,21,13,4,27,53,784,['n'],1,right,['1'],6,332,[-0.11925797],100,53,easy,plus,dotcolour,beta,,,56,18,V,R,
568,64,22,13,4,47,33,1084,['n'],0,left,['3'],4,285,[0.01039269],82,47,medium,plus,dotcolour,beta,,,56,18,V,R,
569,65,23,13,4,36,44,1018,['n'],1,right,['2'],5,433,[-0.15396678],100,44,hard,plus,dotcolour,beta,,,56,18,V,R,
570,66,24,13,4,53,27,784,['c'],1,left,['1'],6,314,[0.06685223],98,53,easy,plus,dotcolour,beta,,,56,18,V,R,
571,67,25,13,4,47,33,999,['n'],0,left,['3'],4,320,[0.01822705],77,47,medium,plus,dotcolour,beta,,,56,18,V,R,
572,68,26,13,4,44,36,851,['n'],0,left,['3'],4,314,[-0.02411694],93,44,hard,plus,dotcolour,beta,,,56,18,V,R,
573,69,27,13,4,33,47,933,['n'],1,right,['2'],5,458,[-0.08190011],97,47,medium,plus,dotcolour,beta,,,56,18,V,R,
574,70,28,13,4,33,47,1617,['c'],0,right,['2'],5,279,[0.10256662],100,47,medium,plus,dotcolour,beta,,,56,18,V,R,
575,71,29,13,4,44,36,882,['n'],0,left,['2'],5,290,[-0.09437711],99,44,hard,plus,dotcolour,beta,,,56,18,V,R,
576,72,30,13,4,47,33,1616,['c'],1,left,['3'],4,350,[0.13654744],100,47,medium,plus,dotcolour,beta,,,56,18,V,R,
577,73,31,13,4,33,47,816,['n'],1,right,['2'],5,289,[-0.06935362],98,47,medium,plus,dotcolour,beta,,,56,18,V,R,
578,74,32,13,4,33,47,1616,['n'],1,right,['2'],5,318,[-0.0143211],90,47,medium,plus,dotcolour,beta,,,56,18,V,R,
579,75,33,13,4,36,44,1133,['n'],1,right,['2'],5,350,[-0.08847198],99,44,hard,plus,dotcolour,beta,,,56,18,V,R,
580,76,34,13,4,33,47,783,['n'],1,right,['1'],6,234,[-0.11201518],100,47,medium,plus,dotcolour,beta,,,56,18,V,R,
581,77,35,13,4,27,53,682,['n'],1,right,['1'],6,262,[-0.06207769],98,53,easy,plus,dotcolour,beta,,,56,18,V,R,
582,78,36,13,4,44,36,735,['n'],0,left,['1'],6,296,[-0.03033089],94,44,hard,plus,dotcolour,beta,,,56,18,V,R,
583,79,37,13,4,53,27,1134,['c'],1,left,['2'],5,319,[0.07020069],98,53,easy,plus,dotcolour,beta,,,56,18,V,R,
584,80,38,13,4,36,44,766,['n'],1,right,['1'],6,261,[-0.08934714],99,44,hard,plus,dotcolour,beta,,,56,18,V,R,
585,81,39,13,4,47,33,1683,['c'],1,left,['2'],5,329,[0.12196433],100,47,medium,plus,dotcolour,beta,,,56,18,V,R,
586,82,40,13,4,53,27,1383,['c'],1,left,['1'],6,606,[0.12672203],99,53,easy,plus,dotcolour,beta,,,56,18,V,R,
587,83,41,13,4,53,27,784,['c'],1,left,['1'],6,359,[0.17034234],100,53,easy,plus,dotcolour,beta,,,56,18,V,R,
588,84,0,14,4,36,44,885,['n'],1,right,['1'],6,307,[-0.13900014],100,44,hard,plus,dotcolour,beta,,,56,18,V,R,
589,85,1,14,4,47,33,833,['n'],0,left,['3'],4,334,[0.07264909],37,47,medium,plus,dotcolour,beta,,,56,18,V,R,
590,86,2,14,4,27,53,783,['n'],1,right,['2'],5,268,[-0.02766536],95,53,easy,plus,dotcolour,beta,,,56,18,V,R,
591,87,3,14,4,33,47,784,['n'],1,right,['1'],6,258,[-0.05026172],98,47,medium,plus,dotcolour,beta,,,56,18,V,R,
592,88,4,14,4,36,44,1167,['c'],0,right,['3'],4,307,[0.04358228],96,44,hard,plus,dotcolour,beta,,,56,18,V,R,
593,89,5,14,4,53,27,933,['c'],1,left,['3'],4,290,[0.08045271],99,53,easy,plus,dotcolour,beta,,,56,18,V,R,
594,90,6,14,4,47,33,1133,['c'],1,left,['3'],4,339,[0.08240076],99,47,medium,plus,dotcolour,beta,,,56,18,V,R,
595,91,7,14,4,33,47,716,['n'],1,right,['2'],5,281,[-0.0455722],97,47,medium,plus,dotcolour,beta,,,56,18,V,R,
596,92,8,14,4,47,33,767,['n'],0,left,['2'],5,329,[-0.05773148],97,47,medium,plus,dotcolour,beta,,,56,18,V,R,
597,93,9,14,4,53,27,1116,['c'],1,left,['2'],5,593,[0.17097079],100,53,easy,plus,dotcolour,beta,,,56,18,V,R,
598,94,10,14,4,47,33,1234,['n'],0,left,['2'],5,384,[-0.07429363],98,47,medium,plus,dotcolour,beta,,,56,18,V,R,
599,95,11,14,4,44,36,2068,['c'],1,left,['3'],4,320,[0.11692178],100,44,hard,plus,dotcolour,beta,,,56,18,V,R,
600,96,12,14,4,27,53,668,['n'],1,right,['1'],6,249,[-0.05602317],98,53,easy,plus,dotcolour,beta,,,56,18,V,R,
601,97,13,14,4,47,33,1200,['n'],0,left,['3'],4,191,[-0.08039768],100,47,medium,plus,dotcolour,beta,,,56,18,V,R,
602,98,14,14,4,44,36,1001,['c'],1,left,['2'],5,769,[0.0697878],93,44,hard,plus,dotcolour,beta,,,56,18,V,R,
603,99,15,14,4,27,53,1268,['n'],1,right,['1'],6,313,[-0.10802822],99,53,easy,plus,dotcolour,beta,,,56,18,V,R,
604,100,16,14,4,44,36,967,['c'],1,left,['2'],5,383,[0.13442675],100,44,hard,plus,dotcolour,beta,,,56,18,V,R,
605,101,17,14,4,36,44,917,['n'],1,right,['1'],6,268,[-0.04681507],97,44,hard,plus,dotcolour,beta,,,56,18,V,R,
606,102,18,14,4,44,36,950,['n'],0,left,['2'],5,276,[-0.02515307],94,44,hard,plus,dotcolour,beta,,,56,18,V,R,
607,103,19,14,4,33,47,767,['n'],1,right,['2'],5,212,[-0.0589831],99,47,medium,plus,dotcolour,beta,,,56,18,V,R,
608,104,20,14,4,36,44,1251,['n'],1,right,['3'],4,290,[-0.09101337],99,44,hard,plus,dotcolour,beta,,,56,18,V,R,
609,105,21,14,4,27,53,717,['n'],1,right,['1'],6,235,[-0.10111127],100,53,easy,plus,dotcolour,beta,,,56,18,V,R,
610,106,22,14,4,33,47,767,['n'],1,right,['1'],6,300,[-0.07104688],98,47,medium,plus,dotcolour,beta,,,56,18,V,R,
611,107,23,14,4,27,53,650,['n'],1,right,['1'],6,240,[-0.08361556],99,53,easy,plus,dotcolour,beta,,,56,18,V,R,
612,108,24,14,4,44,36,850,['c'],1,left,['3'],4,317,[0.04308286],96,44,hard,plus,dotcolour,beta,,,56,18,V,R,
613,109,25,14,4,27,53,750,['n'],1,right,['1'],6,316,[-0.05643805],97,53,easy,plus,dotcolour,beta,,,56,18,V,R,
614,110,26,14,4,44,36,751,['n'],0,left,['1'],6,210,[0.00835926],86,44,hard,plus,dotcolour,beta,,,56,18,V,R,
615,111,27,14,4,36,44,868,['n'],1,right,['1'],6,280,[-0.01946481],93,44,hard,plus,dotcolour,beta,,,56,18,V,R,
616,112,28,14,4,33,47,800,['n'],1,right,['2'],5,334,[-0.17213181],100,47,medium,plus,dotcolour,beta,,,56,18,V,R,
617,113,29,14,4,53,27,719,['c'],1,left,['2'],5,470,[0.16146418],100,53,easy,plus,dotcolour,beta,,,56,18,V,R,
618,114,30,14,4,33,47,684,['n'],1,right,['1'],6,353,[-0.2055756],100,47,medium,plus,dotcolour,beta,,,56,18,V,R,
619,115,31,14,4,44,36,818,['c'],1,left,['2'],5,315,[-0.03378076],67,44,hard,plus,dotcolour,beta,,,56,18,V,R,
620,116,32,14,4,33,47,800,['n'],1,right,['2'],5,368,[-0.17552487],100,47,medium,plus,dotcolour,beta,,,56,18,V,R,
621,117,33,14,4,36,44,867,['n'],1,right,['3'],4,385,[-0.12311293],99,44,hard,plus,dotcolour,beta,,,56,18,V,R,
622,118,34,14,4,53,27,1084,['c'],1,left,['2'],5,494,[0.17339443],100,53,easy,plus,dotcolour,beta,,,56,18,V,R,
623,119,35,14,4,53,27,800,['c'],1,left,['1'],6,276,[0.09669021],99,53,easy,plus,dotcolour,beta,,,56,18,V,R,
624,120,36,14,4,53,27,1151,['c'],1,left,['2'],5,323,[0.10097865],99,53,easy,plus,dotcolour,beta,,,56,18,V,R,
625,121,37,14,4,36,44,717,['n'],1,right,['1'],6,363,[-0.05935152],97,44,hard,plus,dotcolour,beta,,,56,18,V,R,
626,122,38,14,4,47,33,1000,['n'],0,left,['3'],4,262,[0.01602654],80,47,medium,plus,dotcolour,beta,,,56,18,V,R,
627,123,39,14,4,47,33,1167,['c'],1,left,['2'],5,278,[0.08347719],99,47,medium,plus,dotcolour,beta,,,56,18,V,R,
628,124,40,14,4,27,53,699,['n'],1,right,['1'],6,232,[-0.06983124],99,53,easy,plus,dotcolour,beta,,,56,18,V,R,
629,125,41,14,4,53,27,934,['c'],1,left,['3'],4,306,[0.12460453],100,53,easy,plus,dotcolour,beta,,,56,18,V,R,
630,0,0,15,5,36,44,834,['n'],1,right,['1'],6,205,[-0.01894592],19,44,hard,minus,dotcolour,beta,,,56,18,V,R,
631,1,1,15,5,44,36,750,['n'],0,left,['1'],6,191,[-0.03602485],31,44,hard,minus,dotcolour,beta,,,56,18,V,R,
632,2,2,15,5,27,53,668,['n'],1,right,['1'],6,270,[-0.13238712],93,53,easy,minus,dotcolour,beta,,,56,18,V,R,
633,3,3,15,5,33,47,900,['n'],1,right,['1'],6,217,[-0.04701173],42,47,medium,minus,dotcolour,beta,,,56,18,V,R,
634,4,4,15,5,27,53,716,['n'],1,right,['1'],6,317,[-0.17089066],98,53,easy,minus,dotcolour,beta,,,56,18,V,R,
635,5,5,15,5,53,27,651,['c'],1,left,['2'],5,295,[0.22781677],100,53,easy,minus,dotcolour,beta,,,56,18,V,R,
636,6,6,15,5,33,47,650,['n'],1,right,['1'],6,306,[-0.15822931],97,47,medium,minus,dotcolour,beta,,,56,18,V,R,
637,7,7,15,5,47,33,781,['n'],0,left,['1'],6,217,[-0.00071984],11,47,medium,minus,dotcolour,beta,,,56,18,V,R,
638,8,8,15,5,36,44,700,['n'],1,right,['2'],5,277,[-0.10712027],85,44,hard,minus,dotcolour,beta,,,56,18,V,R,
639,9,9,15,5,53,27,817,['n'],0,left,['2'],5,362,[-0.11666808],86,53,easy,minus,dotcolour,beta,,,56,18,V,R,
640,10,10,15,5,33,47,734,['n'],1,right,['2'],5,376,[-0.06806498],59,47,medium,minus,dotcolour,beta,,,56,18,V,R,
641,11,11,15,5,27,53,716,['n'],1,right,['1'],6,269,[-0.19649413],99,53,easy,minus,dotcolour,beta,,,56,18,V,R,
642,12,12,15,5,47,33,885,['c'],1,left,['2'],5,280,[0.08861206],75,47,medium,minus,dotcolour,beta,,,56,18,V,R,
643,13,13,15,5,33,47,883,['n'],1,right,['2'],5,299,[-0.11388112],87,47,medium,minus,dotcolour,beta,,,56,18,V,R,
644,14,14,15,5,36,44,751,['n'],1,right,['2'],5,274,[-0.1612924],97,44,hard,minus,dotcolour,beta,,,56,18,V,R,
645,15,15,15,5,27,53,750,['n'],1,right,['1'],6,266,[-0.12164156],91,53,easy,minus,dotcolour,beta,,,56,18,V,R,
646,16,16,15,5,44,36,867,['c'],1,left,['2'],5,254,[0.12556004],92,44,hard,minus,dotcolour,beta,,,56,18,V,R,
647,17,17,15,5,36,44,734,['n'],1,right,['1'],6,193,[-0.06977104],64,44,hard,minus,dotcolour,beta,,,56,18,V,R,
648,18,18,15,5,47,33,1118,['c'],1,left,['2'],5,301,[0.16074904],97,47,medium,minus,dotcolour,beta,,,56,18,V,R,
649,19,19,15,5,53,27,1051,['c'],1,left,['1'],6,320,[0.10847238],84,53,easy,minus,dotcolour,beta,,,56,18,V,R,
650,20,20,15,5,27,53,617,['n'],1,right,['1'],6,259,[-0.09934227],82,53,easy,minus,dotcolour,beta,,,56,18,V,R,
651,21,21,15,5,47,33,749,['n'],0,left,['1'],6,252,[0.00073196],12,47,medium,minus,dotcolour,beta,,,56,18,V,R,
652,22,22,15,5,44,36,817,['n'],0,left,['3'],4,267,[-0.06511626],58,44,hard,minus,dotcolour,beta,,,56,18,V,R,
653,23,23,15,5,53,27,967,['c'],1,left,['2'],5,242,[0.00614028],14,53,easy,minus,dotcolour,beta,,,56,18,V,R,
654,24,24,15,5,53,27,817,['c'],1,left,['2'],5,297,[0.17902874],98,53,easy,minus,dotcolour,beta,,,56,18,V,R,
655,25,25,15,5,36,44,650,['n'],1,right,['2'],5,373,[-0.14868009],94,44,hard,minus,dotcolour,beta,,,56,18,V,R,
656,26,26,15,5,36,44,767,['n'],1,right,['2'],5,320,[-0.04426131],41,44,hard,minus,dotcolour,beta,,,56,18,V,R,
657,27,27,15,5,47,33,717,['c'],1,left,['2'],5,344,[0.11177381],85,47,medium,minus,dotcolour,beta,,,56,18,V,R,
658,28,28,15,5,27,53,784,['n'],1,right,['1'],6,308,[-0.08342173],71,53,easy,minus,dotcolour,beta,,,56,18,V,R,
659,29,29,15,5,44,36,734,['n'],0,left,['3'],4,779,[0.13510273],2,44,hard,minus,dotcolour,beta,,,56,18,V,R,
660,30,30,15,5,53,27,1034,['c'],1,left,['2'],5,275,[0.11163281],87,53,easy,minus,dotcolour,beta,,,56,18,V,R,
661,31,31,15,5,53,27,734,['c'],1,left,['2'],5,268,[0.15054745],96,53,easy,minus,dotcolour,beta,,,56,18,V,R,
662,32,32,15,5,33,47,917,['c'],0,right,['3'],4,366,[-0.04252343],5,47,medium,minus,dotcolour,beta,,,56,18,V,R,
663,33,33,15,5,44,36,751,['n'],0,left,['3'],4,370,[-0.1336477],91,44,hard,minus,dotcolour,beta,,,56,18,V,R,
664,34,34,15,5,47,33,1900,['c'],1,left,['3'],4,361,[0.1678215],97,47,medium,minus,dotcolour,beta,,,56,18,V,R,
665,35,35,15,5,44,36,749,['n'],0,left,['3'],4,237,[-0.04602556],41,44,hard,minus,dotcolour,beta,,,56,18,V,R,
666,36,36,15,5,36,44,1500,['n'],1,right,['3'],4,529,[-0.16227419],93,44,hard,minus,dotcolour,beta,,,56,18,V,R,
667,37,37,15,5,27,53,716,['n'],1,right,['3'],4,200,[-0.14940628],98,53,easy,minus,dotcolour,beta,,,56,18,V,R,
668,38,38,15,5,33,47,716,['n'],1,right,['2'],5,421,[-0.09651597],76,47,medium,minus,dotcolour,beta,,,56,18,V,R,
669,39,39,15,5,33,47,667,['n'],1,right,['3'],4,339,[-0.15018099],95,47,medium,minus,dotcolour,beta,,,56,18,V,R,
670,40,40,15,5,44,36,949,['c'],1,left,['2'],5,289,[0.08058624],70,44,hard,minus,dotcolour,beta,,,56,18,V,R,
671,41,41,15,5,47,33,1001,['c'],1,left,['2'],5,285,[0.16782491],98,47,medium,minus,dotcolour,beta,,,56,18,V,R,
672,42,0,16,5,44,36,1018,['c'],1,left,['2'],5,297,[0.06724612],60,44,hard,minus,dotcolour,beta,,,56,18,V,R,
673,43,1,16,5,27,53,683,['n'],1,right,['2'],5,299,[-0.17096392],98,53,easy,minus,dotcolour,beta,,,56,18,V,R,
674,44,2,16,5,36,44,850,['n'],1,right,['2'],5,319,[-0.11752316],88,44,hard,minus,dotcolour,beta,,,56,18,V,R,
675,45,3,16,5,36,44,800,['n'],1,right,['2'],5,235,[-0.1267059],93,44,hard,minus,dotcolour,beta,,,56,18,V,R,
676,46,4,16,5,27,53,718,['n'],1,right,['1'],6,311,[-0.21139159],99,53,easy,minus,dotcolour,beta,,,56,18,V,R,
677,47,5,16,5,53,27,885,['c'],1,left,['1'],6,304,[0.05866557],53,53,easy,minus,dotcolour,beta,,,56,18,V,R,
678,48,6,16,5,33,47,751,['n'],1,right,['1'],6,326,[-0.13860641],93,47,medium,minus,dotcolour,beta,,,56,18,V,R,
679,49,7,16,5,44,36,1099,['n'],0,left,['2'],5,247,[-0.15104693],97,44,hard,minus,dotcolour,beta,,,56,18,V,R,
680,50,8,16,5,47,33,1051,['c'],1,left,['3'],4,332,[0.17116365],97,47,medium,minus,dotcolour,beta,,,56,18,V,R,
681,51,9,16,5,53,27,1650,['c'],1,left,['2'],5,254,[0.10886205],87,53,easy,minus,dotcolour,beta,,,56,18,V,R,
682,52,10,16,5,53,27,1300,['c'],1,left,['2'],5,329,[0.19109968],99,53,easy,minus,dotcolour,beta,,,56,18,V,R,
683,53,11,16,5,44,36,883,['n'],0,left,['2'],5,257,[0.05006152],2,44,hard,minus,dotcolour,beta,,,56,18,V,R,
684,54,12,16,5,36,44,901,['n'],1,right,['2'],5,284,[-0.09439441],79,44,hard,minus,dotcolour,beta,,,56,18,V,R,
685,55,13,16,5,47,33,884,['n'],0,left,['2'],5,319,[-0.02743955],29,47,medium,minus,dotcolour,beta,,,56,18,V,R,
686,56,14,16,5,36,44,850,['n'],1,right,['2'],5,313,[-0.06202654],55,44,hard,minus,dotcolour,beta,,,56,18,V,R,
687,57,15,16,5,53,27,785,['c'],1,left,['2'],5,271,[0.13504811],94,53,easy,minus,dotcolour,beta,,,56,18,V,R,
688,58,16,16,5,27,53,634,['n'],1,right,['1'],6,275,[-0.12047077],90,53,easy,minus,dotcolour,beta,,,56,18,V,R,
689,59,17,16,5,47,33,785,['c'],1,left,['2'],5,282,[0.02881904],29,47,medium,minus,dotcolour,beta,,,56,18,V,R,
690,60,18,16,5,44,36,1034,['c'],1,left,['3'],4,479,[0.08978281],71,44,hard,minus,dotcolour,beta,,,56,18,V,R,
691,61,19,16,5,33,47,949,['n'],1,right,['2'],5,335,[-0.08370404],71,47,medium,minus,dotcolour,beta,,,56,18,V,R,
692,62,20,16,5,53,27,917,['n'],0,left,['2'],5,310,[-0.00908451],18,53,easy,minus,dotcolour,beta,,,56,18,V,R,
693,63,21,16,5,33,47,782,['n'],1,right,['1'],6,316,[-0.05439333],49,47,medium,minus,dotcolour,beta,,,56,18,V,R,
694,64,22,16,5,27,53,801,['n'],1,right,['2'],5,337,[-0.18545599],98,53,easy,minus,dotcolour,beta,,,56,18,V,R,
695,65,23,16,5,33,47,784,['n'],1,right,['2'],5,268,[-0.13383791],94,47,medium,minus,dotcolour,beta,,,56,18,V,R,
696,66,24,16,5,44,36,702,['n'],0,left,['2'],5,199,[-0.03892059],34,44,hard,minus,dotcolour,beta,,,56,18,V,R,
697,67,25,16,5,44,36,817,['n'],0,left,['2'],5,264,[-0.01246779],18,44,hard,minus,dotcolour,beta,,,56,18,V,R,
698,68,26,16,5,47,33,1285,['c'],1,left,['3'],4,259,[0.08060417],71,47,medium,minus,dotcolour,beta,,,56,18,V,R,
699,69,27,16,5,33,47,867,['n'],1,right,['2'],5,407,[-0.23324467],99,47,medium,minus,dotcolour,beta,,,56,18,V,R,
700,70,28,16,5,53,27,835,['c'],1,left,['2'],5,311,[0.08182794],70,53,easy,minus,dotcolour,beta,,,56,18,V,R,
701,71,29,16,5,53,27,883,['c'],1,left,['2'],5,240,[0.22922361],100,53,easy,minus,dotcolour,beta,,,56,18,V,R,
702,72,30,16,5,36,44,818,['n'],1,right,['2'],5,294,[-0.03330704],32,44,hard,minus,dotcolour,beta,,,56,18,V,R,
703,73,31,16,5,47,33,935,['n'],0,left,['3'],4,263,[-0.10210477],84,47,medium,minus,dotcolour,beta,,,56,18,V,R,
704,74,32,16,5,27,53,901,['n'],1,right,['1'],6,242,[-0.11584037],90,53,easy,minus,dotcolour,beta,,,56,18,V,R,
705,75,33,16,5,33,47,749,['n'],1,right,['1'],6,283,[-0.23980307],100,47,medium,minus,dotcolour,beta,,,56,18,V,R,
706,76,34,16,5,27,53,668,['n'],1,right,['1'],6,262,[-0.14505067],96,53,easy,minus,dotcolour,beta,,,56,18,V,R,
707,77,35,16,5,36,44,634,['n'],1,right,['1'],6,227,[-0.05323474],48,44,hard,minus,dotcolour,beta,,,56,18,V,R,
708,78,36,16,5,44,36,833,['c'],1,left,['2'],5,258,[0.08372525],73,44,hard,minus,dotcolour,beta,,,56,18,V,R,
709,79,37,16,5,47,33,1249,['c'],1,left,['3'],4,264,[0.14724551],96,47,medium,minus,dotcolour,beta,,,56,18,V,R,
710,80,38,16,5,27,53,733,['n'],1,right,['3'],4,384,[-0.21487133],99,53,easy,minus,dotcolour,beta,,,56,18,V,R,
711,81,39,16,5,47,33,1333,['c'],1,left,['3'],4,325,[0.04050495],38,47,medium,minus,dotcolour,beta,,,56,18,V,R,
712,82,40,16,5,33,47,751,['n'],1,right,['3'],4,379,[-0.08839389],72,47,medium,minus,dotcolour,beta,,,56,18,V,R,
713,83,41,16,5,36,44,666,['n'],1,right,['3'],4,338,[-0.09175036],75,44,hard,minus,dotcolour,beta,,,56,18,V,R,
714,84,0,17,5,47,33,935,['n'],0,left,['3'],4,285,[-0.00969237],18,47,medium,minus,dotcolour,beta,,,56,18,V,R,
715,85,1,17,5,44,36,1368,['n'],0,left,['3'],4,260,[0.01104172],9,44,hard,minus,dotcolour,beta,,,56,18,V,R,
716,86,2,17,5,33,47,717,['c'],0,right,['3'],4,263,[-0.00670058],10,47,medium,minus,dotcolour,beta,,,56,18,V,R,
717,87,3,17,5,27,53,717,['c'],0,right,['2'],5,233,[0.01443254],18,53,easy,minus,dotcolour,beta,,,56,18,V,R,
718,88,4,17,5,47,33,734,['n'],0,left,['3'],4,339,[-0.07974703],68,47,medium,minus,dotcolour,beta,,,56,18,V,R,
719,89,5,17,5,47,33,701,['n'],0,left,['3'],4,307,[-0.05612508],50,47,medium,minus,dotcolour,beta,,,56,18,V,R,
720,90,6,17,5,53,27,767,['n'],0,left,['3'],4,409,[0.10913958],1,53,easy,minus,dotcolour,beta,,,56,18,V,R,
721,91,7,17,5,27,53,1167,['n'],1,right,['1'],6,235,[-0.06691914],60,53,easy,minus,dotcolour,beta,,,56,18,V,R,
722,92,8,17,5,47,33,984,['c'],1,left,['3'],4,227,[0.0912355],79,47,medium,minus,dotcolour,beta,,,56,18,V,R,
723,93,9,17,5,27,53,785,['n'],1,right,['1'],6,204,[-0.08507456],76,53,easy,minus,dotcolour,beta,,,56,18,V,R,
724,94,10,17,5,53,27,1001,['n'],0,left,['3'],4,260,[-0.07610935],67,53,easy,minus,dotcolour,beta,,,56,18,V,R,
725,95,11,17,5,47,33,767,['n'],0,left,['3'],4,269,[0.05036289],2,47,medium,minus,dotcolour,beta,,,56,18,V,R,
726,96,12,17,5,33,47,883,['n'],1,right,['3'],4,305,[-0.04491568],41,47,medium,minus,dotcolour,beta,,,56,18,V,R,
727,97,13,17,5,44,36,751,['n'],0,left,['3'],4,247,[-0.11500162],90,44,hard,minus,dotcolour,beta,,,56,18,V,R,
728,98,14,17,5,53,27,618,['n'],0,left,['3'],4,326,[0.13127209],0,53,easy,minus,dotcolour,beta,,,56,18,V,R,
729,99,15,17,5,36,44,734,['c'],0,right,['3'],4,1156,[-0.13668124],4,44,hard,minus,dotcolour,beta,,,56,18,V,R,
730,100,16,17,5,53,27,1216,['c'],1,left,['3'],4,438,[0.18858568],97,53,easy,minus,dotcolour,beta,,,56,18,V,R,
731,101,17,17,5,36,44,668,['n'],1,right,['2'],5,235,[-0.15125494],97,44,hard,minus,dotcolour,beta,,,56,18,V,R,
732,102,18,17,5,44,36,883,['n'],0,left,['3'],4,168,[-0.10335376],89,44,hard,minus,dotcolour,beta,,,56,18,V,R,
733,103,19,17,5,53,27,783,['c'],1,left,['2'],5,283,[0.199569],99,53,easy,minus,dotcolour,beta,,,56,18,V,R,
734,104,20,17,5,27,53,650,['n'],1,right,['1'],6,231,[-0.08785409],77,53,easy,minus,dotcolour,beta,,,56,18,V,R,
735,105,21,17,5,27,53,583,['n'],1,right,['1'],6,288,[-0.04735525],43,53,easy,minus,dotcolour,beta,,,56,18,V,R,
736,106,22,17,5,36,44,967,['n'],1,right,['3'],4,278,[-0.14469876],95,44,hard,minus,dotcolour,beta,,,56,18,V,R,
737,107,23,17,5,27,53,634,['n'],1,right,['1'],6,355,[-0.12556405],89,53,easy,minus,dotcolour,beta,,,56,18,V,R,
738,108,24,17,5,53,27,867,['c'],1,left,['2'],5,291,[0.05709526],51,53,easy,minus,dotcolour,beta,,,56,18,V,R,
739,109,25,17,5,47,33,752,['n'],0,left,['3'],4,411,[-0.02344933],29,47,medium,minus,dotcolour,beta,,,56,18,V,R,
740,110,26,17,5,33,47,850,['n'],1,right,['1'],6,298,[-0.08901487],75,47,medium,minus,dotcolour,beta,,,56,18,V,R,
741,111,27,17,5,44,36,915,['n'],0,left,['3'],4,194,[-0.06476702],59,44,hard,minus,dotcolour,beta,,,56,18,V,R,
742,112,28,17,5,33,47,668,['n'],1,right,['2'],5,313,[0.01853098],8,47,medium,minus,dotcolour,beta,,,56,18,V,R,
743,113,29,17,5,36,44,684,['n'],1,right,['2'],5,322,[-0.07115032],62,44,hard,minus,dotcolour,beta,,,56,18,V,R,
744,114,30,17,5,47,33,985,['n'],0,left,['3'],4,535,[-0.13168341],87,47,medium,minus,dotcolour,beta,,,56,18,V,R,
745,115,31,17,5,44,36,1201,['c'],1,left,['3'],4,274,[0.04284267],39,44,hard,minus,dotcolour,beta,,,56,18,V,R,
746,116,32,17,5,44,36,733,['n'],0,left,['3'],4,236,[-0.0776467],69,44,hard,minus,dotcolour,beta,,,56,18,V,R,
747,117,33,17,5,36,44,700,['n'],1,right,['3'],4,238,[-0.03456987],32,44,hard,minus,dotcolour,beta,,,56,18,V,R,
748,118,34,17,5,53,27,750,['c'],1,left,['3'],4,336,[0.01740924],23,53,easy,minus,dotcolour,beta,,,56,18,V,R,
749,119,35,17,5,36,44,784,['n'],1,right,['3'],4,252,[-0.08025506],71,44,hard,minus,dotcolour,beta,,,56,18,V,R,
750,120,36,17,5,36,44,617,['n'],1,right,['2'],5,299,[-0.20806174],99,44,hard,minus,dotcolour,beta,,,56,18,V,R,
751,121,37,17,5,33,47,584,['n'],1,right,['2'],5,313,[-0.0417386],39,47,medium,minus,dotcolour,beta,,,56,18,V,R,
752,122,38,17,5,44,36,717,['c'],1,left,['2'],5,201,[0.0586532],53,44,hard,minus,dotcolour,beta,,,56,18,V,R,
753,123,39,17,5,33,47,684,['n'],1,right,['2'],5,288,[-0.12229643],90,47,medium,minus,dotcolour,beta,,,56,18,V,R,
754,124,40,17,5,33,47,600,['n'],1,right,['2'],5,244,[-0.14693312],97,47,medium,minus,dotcolour,beta,,,56,18,V,R,
755,125,41,17,5,27,53,634,['n'],1,right,['2'],5,354,[-0.1494839],94,53,easy,minus,dotcolour,beta,,,56,18,V,R,
,,,,,,,,,,,,,,,,,,,,,1,"soms zijn de scores heel de tijd hetzelfde en soms zijn deze de hele tijd versc
hillend ",56,18,V,R,
,,,,,,,,,,,,,,,,,,,,,2,['g'],56,18,V,R,
,,,,,,,,,,,,,,,,,,,,,3,['f'],56,18,V,R,
,,,,,,,,,,,,,,,,,,,,,5,['5'],56,18,V,R,
