trial,withinphasetrial,withinblocktrial,block,phase,dotsLeft,dotsRight,rt,resp,cor,cresp,conf_press,cj,RTconf,ev,fb,diff,difflevel,condition,task,manip,questionID,questionResp,sub,age,gender,handedness,
0,0,0,0,0,27,53,2734,['n'],1,right,['0'],6,1725,[-0.2454404],100,53,easy,plus,dotcolour,alfa,,,114,19,V,R,
1,1,1,0,0,33,47,1001,['c'],0,right,['3'],3,2480,[-0.23336503],0,47,medium,plus,dotcolour,alfa,,,114,19,V,R,
2,2,2,0,0,36,44,1100,['n'],1,right,['9'],5,2337,[-0.24423722],100,44,hard,plus,dotcolour,alfa,,,114,19,V,R,
3,3,3,0,0,47,33,1151,['c'],1,left,['9'],5,1494,[0.05138526],82,47,medium,plus,dotcolour,alfa,,,114,19,V,R,
4,4,4,0,0,36,44,783,['n'],1,right,['9'],5,1444,[-0.06607763],88,44,hard,plus,dotcolour,alfa,,,114,19,V,R,
5,5,5,0,0,47,33,718,['n'],0,left,['9'],5,1110,[-0.12095763],98,47,medium,plus,dotcolour,alfa,,,114,19,V,R,
6,6,6,0,0,44,36,683,['c'],1,left,['9'],5,976,[0.09704109],97,44,hard,plus,dotcolour,alfa,,,114,19,V,R,
7,7,7,0,0,33,47,601,['n'],1,right,['9'],5,426,[-0.25508534],100,47,medium,plus,dotcolour,alfa,,,114,19,V,R,
8,8,8,0,0,53,27,1016,['c'],1,left,['9'],5,674,[0.14406697],100,53,easy,plus,dotcolour,alfa,,,114,19,V,R,
9,9,9,0,0,44,36,900,['c'],1,left,['9'],5,700,[0.18979227],100,44,hard,plus,dotcolour,alfa,,,114,19,V,R,
10,10,10,0,0,53,27,984,['c'],1,left,['9'],5,937,[0.07114688],93,53,easy,plus,dotcolour,alfa,,,114,19,V,R,
11,11,11,0,0,27,53,617,['n'],1,right,['9'],5,620,[-0.19137314],100,53,easy,plus,dotcolour,alfa,,,114,19,V,R,
12,12,12,0,0,27,53,883,['n'],1,right,['9'],5,728,[-0.18067484],100,53,easy,plus,dotcolour,alfa,,,114,19,V,R,
13,13,13,0,0,53,27,734,['n'],0,left,['9'],5,583,[0.11419296],0,53,easy,plus,dotcolour,alfa,,,114,19,V,R,
14,14,14,0,0,36,44,767,['n'],1,right,['9'],5,507,[-0.16352391],100,44,hard,plus,dotcolour,alfa,,,114,19,V,R,
15,15,15,0,0,33,47,601,['n'],1,right,['9'],5,1760,[-0.40235836],100,47,medium,plus,dotcolour,alfa,,,114,19,V,R,
16,16,16,0,0,36,44,534,['n'],1,right,['9'],5,468,[-0.17293915],100,44,hard,plus,dotcolour,alfa,,,114,19,V,R,
17,17,17,0,0,33,47,585,['n'],1,right,['9'],5,514,[-0.05930452],95,47,medium,plus,dotcolour,alfa,,,114,19,V,R,
18,18,18,0,0,47,33,584,['n'],0,left,['9'],5,392,[0.0033356],45,47,medium,plus,dotcolour,alfa,,,114,19,V,R,
19,19,19,0,0,44,36,567,['n'],0,left,['9'],5,355,[0.01682359],27,44,hard,plus,dotcolour,alfa,,,114,19,V,R,
20,20,20,0,0,36,44,550,['n'],1,right,['9'],5,407,[-0.00239015],53,44,hard,plus,dotcolour,alfa,,,114,19,V,R,
21,21,21,0,0,53,27,485,['n'],0,left,['9'],5,397,[0.04386098],8,53,easy,plus,dotcolour,alfa,,,114,19,V,R,
22,22,22,0,0,44,36,735,['n'],0,left,['9'],5,417,[0.05105375],5,44,hard,plus,dotcolour,alfa,,,114,19,V,R,
23,23,23,0,0,36,44,817,['n'],1,right,['9'],5,456,[-0.11196015],100,44,hard,plus,dotcolour,alfa,,,114,19,V,R,
24,24,24,0,0,27,53,700,['n'],1,right,['9'],5,412,[-0.00369126],55,53,easy,plus,dotcolour,alfa,,,114,19,V,R,
25,25,25,0,0,47,33,1317,['n'],0,left,['9'],5,432,[-0.05649664],96,47,medium,plus,dotcolour,alfa,,,114,19,V,R,
26,26,26,0,0,33,47,601,['n'],1,right,['9'],5,407,[-0.11522345],100,47,medium,plus,dotcolour,alfa,,,114,19,V,R,
27,27,27,0,0,47,33,651,['c'],1,left,['9'],5,398,[0.14788602],100,47,medium,plus,dotcolour,alfa,,,114,19,V,R,
28,28,28,0,0,33,47,599,['n'],1,right,['9'],5,407,[-0.18685957],100,47,medium,plus,dotcolour,alfa,,,114,19,V,R,
29,29,29,0,0,36,44,967,['c'],0,right,['9'],5,337,[0.05120566],96,44,hard,plus,dotcolour,alfa,,,114,19,V,R,
30,30,30,0,0,27,53,750,['n'],1,right,['9'],5,366,[-0.1038821],100,53,easy,plus,dotcolour,alfa,,,114,19,V,R,
31,31,31,0,0,47,33,666,['n'],0,left,['9'],5,423,[0.04074434],9,47,medium,plus,dotcolour,alfa,,,114,19,V,R,
32,32,32,0,0,33,47,934,['n'],1,right,['9'],5,505,[-0.05476952],94,47,medium,plus,dotcolour,alfa,,,114,19,V,R,
33,33,33,0,0,47,33,884,['c'],1,left,['9'],5,411,[0.14231823],100,47,medium,plus,dotcolour,alfa,,,114,19,V,R,
34,34,34,0,0,27,53,567,['n'],1,right,['9'],5,462,[-0.22428502],100,53,easy,plus,dotcolour,alfa,,,114,19,V,R,
35,35,35,0,0,27,53,584,['n'],1,right,['9'],5,421,[0.05375222],5,53,easy,plus,dotcolour,alfa,,,114,19,V,R,
36,36,36,0,0,44,36,533,['n'],0,left,['9'],5,391,[-0.10823731],100,44,hard,plus,dotcolour,alfa,,,114,19,V,R,
37,37,37,0,0,44,36,701,['c'],1,left,['9'],5,412,[0.15671336],100,44,hard,plus,dotcolour,alfa,,,114,19,V,R,
38,38,38,0,0,53,27,634,['n'],0,left,['9'],5,356,[0.07235086],1,53,easy,plus,dotcolour,alfa,,,114,19,V,R,
39,39,39,0,0,53,27,801,['n'],0,left,['9'],5,358,[0.00804941],38,53,easy,plus,dotcolour,alfa,,,114,19,V,R,
40,40,40,0,0,53,27,784,['c'],1,left,['9'],5,377,[-0.03378027],12,53,easy,plus,dotcolour,alfa,,,114,19,V,R,
41,41,41,0,0,44,36,700,['n'],0,left,['9'],5,376,[-0.0370583],90,44,hard,plus,dotcolour,alfa,,,114,19,V,R,
42,42,0,1,0,27,53,601,['n'],1,right,['9'],5,399,[-0.2533592],100,53,easy,plus,dotcolour,alfa,,,114,19,V,R,
43,43,1,1,0,36,44,534,['n'],1,right,['9'],5,331,[-0.08008502],99,44,hard,plus,dotcolour,alfa,,,114,19,V,R,
44,44,2,1,0,44,36,417,['n'],0,left,['9'],5,326,[-0.07487523],99,44,hard,plus,dotcolour,alfa,,,114,19,V,R,
45,45,3,1,0,33,47,651,['n'],1,right,['9'],5,304,[-0.11456407],100,47,medium,plus,dotcolour,alfa,,,114,19,V,R,
46,46,4,1,0,33,47,800,['c'],0,right,['9'],5,309,[0.0179255],76,47,medium,plus,dotcolour,alfa,,,114,19,V,R,
47,47,5,1,0,47,33,469,['n'],0,left,['9'],5,343,[-0.03061297],87,47,medium,plus,dotcolour,alfa,,,114,19,V,R,
48,48,6,1,0,47,33,735,['n'],0,left,['9'],5,317,[-0.06167214],98,47,medium,plus,dotcolour,alfa,,,114,19,V,R,
49,49,7,1,0,36,44,634,['n'],1,right,['9'],5,352,[-0.07474349],99,44,hard,plus,dotcolour,alfa,,,114,19,V,R,
50,50,8,1,0,47,33,600,['c'],1,left,['9'],5,395,[0.11475468],100,47,medium,plus,dotcolour,alfa,,,114,19,V,R,
51,51,9,1,0,53,27,550,['n'],0,left,['9'],5,374,[0.07917289],1,53,easy,plus,dotcolour,alfa,,,114,19,V,R,
52,52,10,1,0,27,53,585,['n'],1,right,['9'],5,426,[-0.06705681],98,53,easy,plus,dotcolour,alfa,,,114,19,V,R,
53,53,11,1,0,36,44,551,['n'],1,right,['9'],5,403,[-0.1324732],100,44,hard,plus,dotcolour,alfa,,,114,19,V,R,
54,54,12,1,0,47,33,834,['c'],1,left,['9'],5,307,[0.03179393],89,47,medium,plus,dotcolour,alfa,,,114,19,V,R,
55,55,13,1,0,53,27,501,['n'],0,left,['9'],5,403,[-0.07642176],99,53,easy,plus,dotcolour,alfa,,,114,19,V,R,
56,56,14,1,0,33,47,601,['n'],1,right,['9'],5,339,[-0.14747628],100,47,medium,plus,dotcolour,alfa,,,114,19,V,R,
57,57,15,1,0,33,47,584,['n'],1,right,['9'],5,351,[-0.0789619],99,47,medium,plus,dotcolour,alfa,,,114,19,V,R,
58,58,16,1,0,53,27,550,['n'],0,left,['9'],5,293,[0.02848618],13,53,easy,plus,dotcolour,alfa,,,114,19,V,R,
59,59,17,1,0,53,27,516,['c'],1,left,['9'],5,326,[0.11991797],100,53,easy,plus,dotcolour,alfa,,,114,19,V,R,
60,60,18,1,0,36,44,650,['n'],1,right,['9'],5,272,[-0.10949205],100,44,hard,plus,dotcolour,alfa,,,114,19,V,R,
61,61,19,1,0,27,53,984,['n'],1,right,['9'],5,294,[-0.04826244],96,53,easy,plus,dotcolour,alfa,,,114,19,V,R,
62,62,20,1,0,53,27,834,['c'],1,left,['8'],4,419,[0.12577892],100,53,easy,plus,dotcolour,alfa,,,114,19,V,R,
63,63,21,1,0,47,33,851,['n'],0,left,['9'],5,281,[0.00069907],49,47,medium,plus,dotcolour,alfa,,,114,19,V,R,
64,64,22,1,0,27,53,751,['n'],1,right,['9'],5,296,[-0.10232684],100,53,easy,plus,dotcolour,alfa,,,114,19,V,R,
65,65,23,1,0,36,44,751,['c'],0,right,['2'],2,392,[0.09990139],100,44,hard,plus,dotcolour,alfa,,,114,19,V,R,
66,66,24,1,0,44,36,517,['n'],0,left,['8'],4,404,[-0.20766875],100,44,hard,plus,dotcolour,alfa,,,114,19,V,R,
67,67,25,1,0,33,47,668,['n'],1,right,['9'],5,274,[-0.16940067],100,47,medium,plus,dotcolour,alfa,,,114,19,V,R,
68,68,26,1,0,36,44,417,['n'],1,right,['9'],5,296,[-0.08229966],100,44,hard,plus,dotcolour,alfa,,,114,19,V,R,
69,69,27,1,0,44,36,450,['c'],1,left,['0'],6,331,[0.02599021],84,44,hard,plus,dotcolour,alfa,,,114,19,V,R,
70,70,28,1,0,44,36,534,['n'],0,left,['9'],5,354,[0.03925771],9,44,hard,plus,dotcolour,alfa,,,114,19,V,R,
71,71,29,1,0,44,36,567,['n'],0,left,['9'],5,254,[-0.02993765],89,44,hard,plus,dotcolour,alfa,,,114,19,V,R,
72,72,30,1,0,53,27,600,['n'],0,left,['9'],5,268,[-0.02045784],81,53,easy,plus,dotcolour,alfa,,,114,19,V,R,
73,73,31,1,0,27,53,551,['n'],1,right,['9'],5,277,[-0.11632274],100,53,easy,plus,dotcolour,alfa,,,114,19,V,R,
74,74,32,1,0,47,33,583,['n'],0,left,['9'],5,340,[-0.04770966],95,47,medium,plus,dotcolour,alfa,,,114,19,V,R,
75,75,33,1,0,44,36,484,['c'],1,left,['2'],2,476,[0.00799363],60,44,hard,plus,dotcolour,alfa,,,114,19,V,R,
76,76,34,1,0,27,53,633,['n'],1,right,['9'],5,385,[-0.03436337],88,53,easy,plus,dotcolour,alfa,,,114,19,V,R,
77,77,35,1,0,33,47,683,['n'],1,right,['9'],5,279,[-0.07828203],100,47,medium,plus,dotcolour,alfa,,,114,19,V,R,
78,78,36,1,0,36,44,1334,['c'],0,right,['9'],5,264,[0.05222291],97,44,hard,plus,dotcolour,alfa,,,114,19,V,R,
79,79,37,1,0,44,36,684,['n'],0,left,['9'],5,307,[0.02538766],16,44,hard,plus,dotcolour,alfa,,,114,19,V,R,
80,80,38,1,0,53,27,751,['n'],0,left,['9'],5,314,[-0.04913944],96,53,easy,plus,dotcolour,alfa,,,114,19,V,R,
81,81,39,1,0,33,47,618,['n'],1,right,['9'],5,326,[-0.00712299],61,47,medium,plus,dotcolour,alfa,,,114,19,V,R,
82,82,40,1,0,47,33,550,['c'],1,left,['9'],5,324,[0.11673082],100,47,medium,plus,dotcolour,alfa,,,114,19,V,R,
83,83,41,1,0,27,53,550,['n'],1,right,['9'],5,259,[-0.11783186],100,53,easy,plus,dotcolour,alfa,,,114,19,V,R,
84,84,0,2,0,33,47,685,['n'],1,right,['9'],5,260,[-0.09031318],100,47,medium,plus,dotcolour,alfa,,,114,19,V,R,
85,85,1,2,0,44,36,400,['n'],0,left,['9'],5,251,[-0.07331701],99,44,hard,plus,dotcolour,alfa,,,114,19,V,R,
86,86,2,2,0,47,33,420,['n'],0,left,['9'],5,281,[-0.07032503],99,47,medium,plus,dotcolour,alfa,,,114,19,V,R,
87,87,3,2,0,53,27,416,['c'],1,left,['9'],5,303,[0.10996408],100,53,easy,plus,dotcolour,alfa,,,114,19,V,R,
88,88,4,2,0,53,27,551,['c'],1,left,['9'],5,302,[0.04979826],96,53,easy,plus,dotcolour,alfa,,,114,19,V,R,
89,89,5,2,0,44,36,667,['n'],0,left,['9'],5,289,[0.0171818],24,44,hard,plus,dotcolour,alfa,,,114,19,V,R,
90,90,6,2,0,36,44,684,['c'],0,right,['9'],5,339,[0.087716],100,44,hard,plus,dotcolour,alfa,,,114,19,V,R,
91,91,7,2,0,33,47,583,['n'],1,right,['9'],5,248,[-0.12089464],100,47,medium,plus,dotcolour,alfa,,,114,19,V,R,
92,92,8,2,0,53,27,533,['n'],0,left,['9'],5,265,[0.02521551],15,53,easy,plus,dotcolour,alfa,,,114,19,V,R,
93,93,9,2,0,44,36,767,['n'],0,left,['9'],5,241,[-0.08963052],100,44,hard,plus,dotcolour,alfa,,,114,19,V,R,
94,94,10,2,0,33,47,751,['n'],1,right,['9'],5,242,[-0.10068356],100,47,medium,plus,dotcolour,alfa,,,114,19,V,R,
95,95,11,2,0,36,44,567,['n'],1,right,['9'],5,251,[-0.08465413],100,44,hard,plus,dotcolour,alfa,,,114,19,V,R,
96,96,12,2,0,47,33,617,['n'],0,left,['9'],5,241,[-0.0487236],97,47,medium,plus,dotcolour,alfa,,,114,19,V,R,
97,97,13,2,0,27,53,468,['n'],1,right,['9'],5,270,[-0.07784189],100,53,easy,plus,dotcolour,alfa,,,114,19,V,R,
98,98,14,2,0,44,36,652,['n'],0,left,['9'],5,275,[-0.08827549],100,44,hard,plus,dotcolour,alfa,,,114,19,V,R,
99,99,15,2,0,33,47,584,['n'],1,right,['9'],5,225,[-0.092676],100,47,medium,plus,dotcolour,alfa,,,114,19,V,R,
100,100,16,2,0,53,27,552,['n'],0,left,['9'],5,187,[-0.08060417],100,53,easy,plus,dotcolour,alfa,,,114,19,V,R,
101,101,17,2,0,47,33,717,['c'],1,left,['9'],5,231,[0.07536373],100,47,medium,plus,dotcolour,alfa,,,114,19,V,R,
102,102,18,2,0,53,27,583,['n'],0,left,['9'],5,217,[0.00374971],43,53,easy,plus,dotcolour,alfa,,,114,19,V,R,
103,103,19,2,0,44,36,683,['n'],0,left,['9'],5,221,[-0.02091281],83,44,hard,plus,dotcolour,alfa,,,114,19,V,R,
104,104,20,2,0,36,44,466,['n'],1,right,['9'],5,251,[-0.04683518],97,44,hard,plus,dotcolour,alfa,,,114,19,V,R,
105,105,21,2,0,47,33,551,['n'],0,left,['9'],5,268,[-0.06166855],99,47,medium,plus,dotcolour,alfa,,,114,19,V,R,
106,106,22,2,0,53,27,483,['n'],0,left,['9'],5,208,[-0.02261664],86,53,easy,plus,dotcolour,alfa,,,114,19,V,R,
107,107,23,2,0,33,47,733,['n'],1,right,['9'],5,227,[-0.04421861],97,47,medium,plus,dotcolour,alfa,,,114,19,V,R,
108,108,24,2,0,27,53,485,['n'],1,right,['9'],5,231,[-0.13924449],100,53,easy,plus,dotcolour,alfa,,,114,19,V,R,
109,109,25,2,0,36,44,434,['n'],1,right,['9'],5,230,[-0.01434909],75,44,hard,plus,dotcolour,alfa,,,114,19,V,R,
110,110,26,2,0,47,33,717,['c'],1,left,['9'],5,217,[0.07928879],100,47,medium,plus,dotcolour,alfa,,,114,19,V,R,
111,111,27,2,0,36,44,449,['n'],1,right,['9'],5,200,[-0.13593935],100,44,hard,plus,dotcolour,alfa,,,114,19,V,R,
112,112,28,2,0,53,27,617,['n'],0,left,['9'],5,185,[0.00189014],46,53,easy,plus,dotcolour,alfa,,,114,19,V,R,
113,113,29,2,0,27,53,384,['c'],0,right,['9'],5,292,[-0.00295824],45,53,easy,plus,dotcolour,alfa,,,114,19,V,R,
114,114,30,2,0,27,53,300,['n'],1,right,['9'],5,230,[-0.14659102],100,53,easy,plus,dotcolour,alfa,,,114,19,V,R,
115,115,31,2,0,36,44,484,['n'],1,right,['9'],5,298,[-0.06877137],99,44,hard,plus,dotcolour,alfa,,,114,19,V,R,
116,116,32,2,0,27,53,634,['n'],1,right,['9'],5,206,[-0.09457684],100,53,easy,plus,dotcolour,alfa,,,114,19,V,R,
117,117,33,2,0,47,33,500,['n'],0,left,['9'],5,218,[-0.03539773],94,47,medium,plus,dotcolour,alfa,,,114,19,V,R,
118,118,34,2,0,44,36,566,['c'],1,left,['9'],5,244,[0.13228639],100,44,hard,plus,dotcolour,alfa,,,114,19,V,R,
119,119,35,2,0,44,36,516,['n'],0,left,['9'],5,231,[-0.00199853],54,44,hard,plus,dotcolour,alfa,,,114,19,V,R,
120,120,36,2,0,36,44,435,['n'],1,right,['9'],5,230,[-0.02275678],85,44,hard,plus,dotcolour,alfa,,,114,19,V,R,
121,121,37,2,0,33,47,499,['n'],1,right,['9'],5,226,[-0.05760647],99,47,medium,plus,dotcolour,alfa,,,114,19,V,R,
122,122,38,2,0,27,53,535,['n'],1,right,['9'],5,252,[-0.0428915],96,53,easy,plus,dotcolour,alfa,,,114,19,V,R,
123,123,39,2,0,47,33,418,['n'],0,left,['9'],5,235,[-0.06553875],99,47,medium,plus,dotcolour,alfa,,,114,19,V,R,
124,124,40,2,0,27,53,601,['n'],1,right,['9'],5,244,[-0.14041042],100,53,easy,plus,dotcolour,alfa,,,114,19,V,R,
125,125,41,2,0,33,47,450,['n'],1,right,['9'],5,281,[-0.09455834],100,47,medium,plus,dotcolour,alfa,,,114,19,V,R,
126,0,0,3,1,27,53,634,['n'],1,right,['9'],5,162,[-0.0751934],84,53,easy,minus,dotcolour,alfa,,,114,19,V,R,
127,1,1,3,1,33,47,450,['n'],1,right,['9'],5,243,[-0.03858209],67,47,medium,minus,dotcolour,alfa,,,114,19,V,R,
128,2,2,3,1,36,44,500,['n'],1,right,['9'],5,238,[-0.13402733],92,44,hard,minus,dotcolour,alfa,,,114,19,V,R,
129,3,3,3,1,27,53,567,['n'],1,right,['9'],5,264,[-0.1946503],97,53,easy,minus,dotcolour,alfa,,,114,19,V,R,
130,4,4,3,1,36,44,467,['n'],1,right,['9'],5,251,[-0.03213704],64,44,hard,minus,dotcolour,alfa,,,114,19,V,R,
131,5,5,3,1,33,47,384,['n'],1,right,['9'],5,243,[-0.03546617],66,47,medium,minus,dotcolour,alfa,,,114,19,V,R,
132,6,6,3,1,44,36,400,['n'],0,left,['9'],5,266,[-0.03952133],67,44,hard,minus,dotcolour,alfa,,,114,19,V,R,
133,7,7,3,1,44,36,718,['c'],1,left,['9'],5,253,[0.13899496],92,44,hard,minus,dotcolour,alfa,,,114,19,V,R,
134,8,8,3,1,44,36,416,['n'],0,left,['9'],5,251,[-0.17632074],96,44,hard,minus,dotcolour,alfa,,,114,19,V,R,
135,9,9,3,1,53,27,500,['n'],0,left,['9'],5,246,[-0.11587731],89,53,easy,minus,dotcolour,alfa,,,114,19,V,R,
136,10,10,3,1,33,47,584,['n'],1,right,['9'],5,254,[-0.07851386],80,47,medium,minus,dotcolour,alfa,,,114,19,V,R,
137,11,11,3,1,36,44,418,['n'],1,right,['9'],5,268,[-0.13796904],92,44,hard,minus,dotcolour,alfa,,,114,19,V,R,
138,12,12,3,1,44,36,551,['n'],0,left,['9'],5,221,[-0.04581631],71,44,hard,minus,dotcolour,alfa,,,114,19,V,R,
139,13,13,3,1,36,44,584,['n'],1,right,['9'],5,246,[-0.13769876],92,44,hard,minus,dotcolour,alfa,,,114,19,V,R,
140,14,14,3,1,53,27,433,['n'],0,left,['9'],5,212,[-0.09618424],87,53,easy,minus,dotcolour,alfa,,,114,19,V,R,
141,15,15,3,1,33,47,667,['n'],1,right,['9'],5,290,[-0.07534052],78,47,medium,minus,dotcolour,alfa,,,114,19,V,R,
142,16,16,3,1,27,53,551,['n'],1,right,['9'],5,241,[-0.1543632],94,53,easy,minus,dotcolour,alfa,,,114,19,V,R,
143,17,17,3,1,33,47,568,['n'],1,right,['9'],5,234,[-0.16028044],95,47,medium,minus,dotcolour,alfa,,,114,19,V,R,
144,18,18,3,1,27,53,400,['n'],1,right,['9'],5,234,[-0.05742626],74,53,easy,minus,dotcolour,alfa,,,114,19,V,R,
145,19,19,3,1,36,44,482,['n'],1,right,['9'],5,271,[-0.05301687],71,44,hard,minus,dotcolour,alfa,,,114,19,V,R,
146,20,20,3,1,47,33,617,['n'],0,left,['9'],5,229,[-0.01542462],57,47,medium,minus,dotcolour,alfa,,,114,19,V,R,
147,21,21,3,1,47,33,551,['n'],0,left,['9'],5,222,[-0.03485026],66,47,medium,minus,dotcolour,alfa,,,114,19,V,R,
148,22,22,3,1,47,33,499,['n'],0,left,['9'],5,282,[0.01758326],43,47,medium,minus,dotcolour,alfa,,,114,19,V,R,
149,23,23,3,1,53,27,484,['c'],1,left,['9'],5,260,[0.13649281],92,53,easy,minus,dotcolour,alfa,,,114,19,V,R,
150,24,24,3,1,53,27,485,['n'],0,left,['9'],5,256,[-0.0712714],78,53,easy,minus,dotcolour,alfa,,,114,19,V,R,
151,25,25,3,1,47,33,468,['n'],0,left,['9'],5,212,[-0.05864292],76,47,medium,minus,dotcolour,alfa,,,114,19,V,R,
152,26,26,3,1,33,47,516,['n'],1,right,['9'],5,208,[-0.12565114],92,47,medium,minus,dotcolour,alfa,,,114,19,V,R,
153,27,27,3,1,47,33,617,['c'],1,left,['9'],5,240,[0.13252114],92,47,medium,minus,dotcolour,alfa,,,114,19,V,R,
154,28,28,3,1,47,33,501,['n'],0,left,['9'],5,1091,[-0.08958126],68,47,medium,minus,dotcolour,alfa,,,114,19,V,R,
155,29,29,3,1,53,27,584,['n'],0,left,['8'],4,201,[-0.06996031],80,53,easy,minus,dotcolour,alfa,,,114,19,V,R,
156,30,30,3,1,53,27,966,['c'],1,left,['9'],5,204,[0.14394461],95,53,easy,minus,dotcolour,alfa,,,114,19,V,R,
157,31,31,3,1,44,36,583,['n'],0,left,['9'],5,341,[-0.06900269],74,44,hard,minus,dotcolour,alfa,,,114,19,V,R,
158,32,32,3,1,27,53,634,['n'],1,right,['9'],5,279,[-0.11376965],87,53,easy,minus,dotcolour,alfa,,,114,19,V,R,
159,33,33,3,1,44,36,400,['n'],0,left,['9'],5,270,[-0.02977499],63,44,hard,minus,dotcolour,alfa,,,114,19,V,R,
160,34,34,3,1,33,47,484,['n'],1,right,['9'],5,296,[-0.03762554],65,47,medium,minus,dotcolour,alfa,,,114,19,V,R,
161,35,35,3,1,53,27,734,['c'],1,left,['9'],5,272,[0.08221458],81,53,easy,minus,dotcolour,alfa,,,114,19,V,R,
162,36,36,3,1,47,33,601,['n'],0,left,['9'],5,230,[-0.09557731],86,47,medium,minus,dotcolour,alfa,,,114,19,V,R,
163,37,37,3,1,36,44,634,['n'],1,right,['9'],5,245,[-0.15259966],94,44,hard,minus,dotcolour,alfa,,,114,19,V,R,
164,38,38,3,1,44,36,783,['c'],1,left,['9'],5,245,[0.08612994],83,44,hard,minus,dotcolour,alfa,,,114,19,V,R,
165,39,39,3,1,27,53,450,['n'],1,right,['9'],5,218,[-0.05922974],76,53,easy,minus,dotcolour,alfa,,,114,19,V,R,
166,40,40,3,1,36,44,501,['n'],1,right,['9'],5,239,[0.03044685],36,44,hard,minus,dotcolour,alfa,,,114,19,V,R,
167,41,41,3,1,27,53,550,['n'],1,right,['9'],5,256,[-0.03815785],66,53,easy,minus,dotcolour,alfa,,,114,19,V,R,
168,42,0,4,1,33,47,567,['n'],1,right,['9'],5,223,[-0.10365683],88,47,medium,minus,dotcolour,alfa,,,114,19,V,R,
169,43,1,4,1,53,27,386,['n'],0,left,['9'],5,368,[-0.0321996],62,53,easy,minus,dotcolour,alfa,,,114,19,V,R,
170,44,2,4,1,33,47,484,['n'],1,right,['9'],5,241,[-0.07989816],81,47,medium,minus,dotcolour,alfa,,,114,19,V,R,
171,45,3,4,1,47,33,601,['c'],1,left,['9'],5,336,[0.14687853],91,47,medium,minus,dotcolour,alfa,,,114,19,V,R,
172,46,4,4,1,36,44,467,['n'],1,right,['9'],5,272,[-0.11155728],87,44,hard,minus,dotcolour,alfa,,,114,19,V,R,
173,47,5,4,1,27,53,533,['c'],0,right,['9'],5,250,[-0.01577507],43,53,easy,minus,dotcolour,alfa,,,114,19,V,R,
174,48,6,4,1,44,36,400,['n'],0,left,['9'],5,297,[-0.08710211],81,44,hard,minus,dotcolour,alfa,,,114,19,V,R,
175,49,7,4,1,27,53,551,['n'],1,right,['9'],5,272,[-0.15762014],94,53,easy,minus,dotcolour,alfa,,,114,19,V,R,
176,50,8,4,1,47,33,534,['n'],0,left,['9'],5,264,[-0.12443515],90,47,medium,minus,dotcolour,alfa,,,114,19,V,R,
177,51,9,4,1,27,53,567,['n'],1,right,['9'],5,272,[-0.0486413],70,53,easy,minus,dotcolour,alfa,,,114,19,V,R,
178,52,10,4,1,44,36,501,['n'],0,left,['9'],5,258,[-0.07074255],78,44,hard,minus,dotcolour,alfa,,,114,19,V,R,
179,53,11,4,1,36,44,668,['n'],1,right,['9'],5,286,[-0.09613057],83,44,hard,minus,dotcolour,alfa,,,114,19,V,R,
180,54,12,4,1,53,27,651,['c'],1,left,['9'],5,281,[0.16997391],95,53,easy,minus,dotcolour,alfa,,,114,19,V,R,
181,55,13,4,1,33,47,935,['c'],0,right,['9'],5,219,[-0.01100958],45,47,medium,minus,dotcolour,alfa,,,114,19,V,R,
182,56,14,4,1,47,33,384,['n'],0,left,['9'],5,244,[-0.10493258],87,47,medium,minus,dotcolour,alfa,,,114,19,V,R,
183,57,15,4,1,47,33,568,['n'],0,left,['9'],5,228,[-0.08572745],83,47,medium,minus,dotcolour,alfa,,,114,19,V,R,
184,58,16,4,1,53,27,483,['n'],0,left,['9'],5,249,[-0.05503366],73,53,easy,minus,dotcolour,alfa,,,114,19,V,R,
185,59,17,4,1,27,53,551,['n'],1,right,['9'],5,267,[-0.04783846],70,53,easy,minus,dotcolour,alfa,,,114,19,V,R,
186,60,18,4,1,44,36,501,['n'],0,left,['9'],5,245,[0.00047608],50,44,hard,minus,dotcolour,alfa,,,114,19,V,R,
187,61,19,4,1,33,47,566,['n'],1,right,['9'],5,253,[-0.10701854],87,47,medium,minus,dotcolour,alfa,,,114,19,V,R,
188,62,20,4,1,53,27,534,['c'],1,left,['9'],5,271,[0.01531747],57,53,easy,minus,dotcolour,alfa,,,114,19,V,R,
189,63,21,4,1,53,27,951,['c'],1,left,['9'],5,216,[0.1218002],91,53,easy,minus,dotcolour,alfa,,,114,19,V,R,
190,64,22,4,1,36,44,567,['n'],1,right,['9'],5,265,[-0.07992918],80,44,hard,minus,dotcolour,alfa,,,114,19,V,R,
191,65,23,4,1,36,44,567,['n'],1,right,['9'],5,249,[-0.12316657],90,44,hard,minus,dotcolour,alfa,,,114,19,V,R,
192,66,24,4,1,47,33,601,['c'],1,left,['9'],5,240,[0.04669093],70,47,medium,minus,dotcolour,alfa,,,114,19,V,R,
193,67,25,4,1,44,36,351,['n'],0,left,['9'],5,314,[-0.12242002],88,44,hard,minus,dotcolour,alfa,,,114,19,V,R,
194,68,26,4,1,27,53,717,['c'],0,right,['9'],5,274,[-0.05042521],30,53,easy,minus,dotcolour,alfa,,,114,19,V,R,
195,69,27,4,1,53,27,417,['n'],0,left,['9'],5,344,[-0.05860374],71,53,easy,minus,dotcolour,alfa,,,114,19,V,R,
196,70,28,4,1,36,44,535,['n'],1,right,['9'],5,317,[-0.1833659],95,44,hard,minus,dotcolour,alfa,,,114,19,V,R,
197,71,29,4,1,53,27,384,['n'],0,left,['9'],5,226,[0.01710558],42,53,easy,minus,dotcolour,alfa,,,114,19,V,R,
198,72,30,4,1,47,33,483,['c'],1,left,['9'],5,271,[0.0836923],81,47,medium,minus,dotcolour,alfa,,,114,19,V,R,
199,73,31,4,1,27,53,634,['n'],1,right,['9'],5,220,[-0.06977508],79,53,easy,minus,dotcolour,alfa,,,114,19,V,R,
200,74,32,4,1,27,53,482,['n'],1,right,['9'],5,273,[-0.15787558],94,53,easy,minus,dotcolour,alfa,,,114,19,V,R,
201,75,33,4,1,33,47,351,['n'],1,right,['9'],5,289,[-0.06663212],75,47,medium,minus,dotcolour,alfa,,,114,19,V,R,
202,76,34,4,1,36,44,334,['n'],1,right,['9'],5,370,[-0.24070531],97,44,hard,minus,dotcolour,alfa,,,114,19,V,R,
203,77,35,4,1,33,47,434,['n'],1,right,['9'],5,274,[-0.16127701],94,47,medium,minus,dotcolour,alfa,,,114,19,V,R,
204,78,36,4,1,47,33,718,['c'],1,left,['9'],5,219,[0.11538384],90,47,medium,minus,dotcolour,alfa,,,114,19,V,R,
205,79,37,4,1,33,47,451,['n'],1,right,['9'],5,274,[-0.03825622],66,47,medium,minus,dotcolour,alfa,,,114,19,V,R,
206,80,38,4,1,44,36,384,['n'],0,left,['9'],5,257,[-0.03203561],64,44,hard,minus,dotcolour,alfa,,,114,19,V,R,
207,81,39,4,1,44,36,434,['n'],0,left,['9'],5,294,[-0.10829477],86,44,hard,minus,dotcolour,alfa,,,114,19,V,R,
208,82,40,4,1,44,36,450,['n'],0,left,['9'],5,369,[-0.05189731],68,44,hard,minus,dotcolour,alfa,,,114,19,V,R,
209,83,41,4,1,36,44,449,['n'],1,right,['9'],5,234,[0.03589592],34,44,hard,minus,dotcolour,alfa,,,114,19,V,R,
210,84,0,5,1,47,33,568,['n'],0,left,['9'],5,224,[-0.14127352],94,47,medium,minus,dotcolour,alfa,,,114,19,V,R,
211,85,1,5,1,36,44,417,['n'],1,right,['9'],5,207,[-0.0953664],87,44,hard,minus,dotcolour,alfa,,,114,19,V,R,
212,86,2,5,1,36,44,400,['n'],1,right,['9'],5,264,[-0.12330487],90,44,hard,minus,dotcolour,alfa,,,114,19,V,R,
213,87,3,5,1,53,27,384,['n'],0,left,['9'],5,247,[0.00599985],47,53,easy,minus,dotcolour,alfa,,,114,19,V,R,
214,88,4,5,1,33,47,1084,['n'],1,right,['9'],5,196,[-0.09646093],88,47,medium,minus,dotcolour,alfa,,,114,19,V,R,
215,89,5,5,1,47,33,583,['c'],1,left,['9'],5,253,[0.059323],74,47,medium,minus,dotcolour,alfa,,,114,19,V,R,
216,90,6,5,1,53,27,667,['c'],1,left,['9'],5,234,[0.13649985],93,53,easy,minus,dotcolour,alfa,,,114,19,V,R,
217,91,7,5,1,47,33,484,['n'],0,left,['9'],5,294,[-0.01114545],55,47,medium,minus,dotcolour,alfa,,,114,19,V,R,
218,92,8,5,1,33,47,451,['n'],1,right,['9'],5,265,[-0.1332841],91,47,medium,minus,dotcolour,alfa,,,114,19,V,R,
219,93,9,5,1,36,44,770,['n'],1,right,['9'],5,242,[-0.03365888],65,44,hard,minus,dotcolour,alfa,,,114,19,V,R,
220,94,10,5,1,27,53,517,['n'],1,right,['9'],5,308,[-0.19191997],96,53,easy,minus,dotcolour,alfa,,,114,19,V,R,
221,95,11,5,1,33,47,450,['n'],1,right,['9'],5,295,[-0.007694],53,47,medium,minus,dotcolour,alfa,,,114,19,V,R,
222,96,12,5,1,47,33,401,['n'],0,left,['9'],5,307,[0.04164784],34,47,medium,minus,dotcolour,alfa,,,114,19,V,R,
223,97,13,5,1,47,33,418,['c'],1,left,['9'],5,232,[0.01388595],56,47,medium,minus,dotcolour,alfa,,,114,19,V,R,
224,98,14,5,1,53,27,450,['n'],0,left,['9'],5,246,[-0.01236336],56,53,easy,minus,dotcolour,alfa,,,114,19,V,R,
225,99,15,5,1,36,44,418,['n'],1,right,['9'],5,260,[-0.07640802],79,44,hard,minus,dotcolour,alfa,,,114,19,V,R,
226,100,16,5,1,53,27,718,['c'],1,left,['9'],5,238,[0.04313908],69,53,easy,minus,dotcolour,alfa,,,114,19,V,R,
227,101,17,5,1,44,36,384,['n'],0,left,['9'],5,279,[-0.06071869],74,44,hard,minus,dotcolour,alfa,,,114,19,V,R,
228,102,18,5,1,53,27,735,['c'],1,left,['9'],5,224,[0.11985966],91,53,easy,minus,dotcolour,alfa,,,114,19,V,R,
229,103,19,5,1,27,53,534,['n'],1,right,['9'],5,242,[-0.10845453],88,53,easy,minus,dotcolour,alfa,,,114,19,V,R,
230,104,20,5,1,44,36,617,['c'],1,left,['9'],5,201,[0.04554505],71,44,hard,minus,dotcolour,alfa,,,114,19,V,R,
231,105,21,5,1,36,44,484,['n'],1,right,['9'],5,303,[-0.00577337],52,44,hard,minus,dotcolour,alfa,,,114,19,V,R,
232,106,22,5,1,44,36,417,['c'],1,left,['9'],5,275,[0.06896965],77,44,hard,minus,dotcolour,alfa,,,114,19,V,R,
233,107,23,5,1,47,33,550,['n'],0,left,['9'],5,211,[-0.03892356],68,47,medium,minus,dotcolour,alfa,,,114,19,V,R,
234,108,24,5,1,36,44,717,['c'],0,right,['9'],5,279,[0.12031461],89,44,hard,minus,dotcolour,alfa,,,114,19,V,R,
235,109,25,5,1,27,53,766,['n'],1,right,['9'],5,214,[-0.1739744],97,53,easy,minus,dotcolour,alfa,,,114,19,V,R,
236,110,26,5,1,27,53,417,['n'],1,right,['9'],5,310,[-0.19029794],96,53,easy,minus,dotcolour,alfa,,,114,19,V,R,
237,111,27,5,1,27,53,484,['n'],1,right,['9'],5,257,[-0.12088978],90,53,easy,minus,dotcolour,alfa,,,114,19,V,R,
238,112,28,5,1,44,36,366,['n'],0,left,['9'],5,280,[-0.09880892],84,44,hard,minus,dotcolour,alfa,,,114,19,V,R,
239,113,29,5,1,36,44,701,['n'],1,right,['9'],5,274,[-0.00059266],50,44,hard,minus,dotcolour,alfa,,,114,19,V,R,
240,114,30,5,1,53,27,351,['n'],0,left,['9'],5,322,[-0.0611263],73,53,easy,minus,dotcolour,alfa,,,114,19,V,R,
241,115,31,5,1,27,53,650,['n'],1,right,['9'],5,340,[-0.17895186],94,53,easy,minus,dotcolour,alfa,,,114,19,V,R,
242,116,32,5,1,33,47,367,['n'],1,right,['9'],5,232,[-0.08497499],83,47,medium,minus,dotcolour,alfa,,,114,19,V,R,
243,117,33,5,1,33,47,551,['n'],1,right,['9'],5,258,[-0.06756763],77,47,medium,minus,dotcolour,alfa,,,114,19,V,R,
244,118,34,5,1,47,33,434,['c'],1,left,['9'],5,191,[0.06733404],80,47,medium,minus,dotcolour,alfa,,,114,19,V,R,
245,119,35,5,1,44,36,417,['n'],0,left,['9'],5,224,[0.01605593],42,44,hard,minus,dotcolour,alfa,,,114,19,V,R,
246,120,36,5,1,27,53,1218,['n'],1,right,"['9', '8']",5,368,[-0.02905119],61,53,easy,minus,dotcolour,alfa,,,114,19,V,R,
247,121,37,5,1,53,27,534,['n'],0,left,['9'],5,222,[0.00580431],47,53,easy,minus,dotcolour,alfa,,,114,19,V,R,
248,122,38,5,1,44,36,667,['c'],1,left,['9'],5,275,[0.14771114],93,44,hard,minus,dotcolour,alfa,,,114,19,V,R,
249,123,39,5,1,33,47,667,['n'],1,right,['9'],5,214,[-0.09779281],87,47,medium,minus,dotcolour,alfa,,,114,19,V,R,
250,124,40,5,1,44,36,601,['n'],0,left,['9'],5,262,[-0.10320682],86,44,hard,minus,dotcolour,alfa,,,114,19,V,R,
251,125,41,5,1,33,47,434,['c'],0,right,['9'],5,244,[-0.00141441],49,47,medium,minus,dotcolour,alfa,,,114,19,V,R,
252,0,0,6,2,36,44,602,['n'],1,right,['9'],5,227,[-0.12945104],100,44,hard,plus,dotcolour,alfa,,,114,19,V,R,
253,1,1,6,2,33,47,367,['n'],1,right,['9'],5,251,[-0.14912719],100,47,medium,plus,dotcolour,alfa,,,114,19,V,R,
254,2,2,6,2,27,53,451,['n'],1,right,['9'],5,249,[-0.12700391],100,53,easy,plus,dotcolour,alfa,,,114,19,V,R,
255,3,3,6,2,33,47,351,['n'],1,right,['9'],5,265,[-0.18403568],100,47,medium,plus,dotcolour,alfa,,,114,19,V,R,
256,4,4,6,2,33,47,417,['n'],1,right,['9'],5,280,[-0.05114037],97,47,medium,plus,dotcolour,alfa,,,114,19,V,R,
257,5,5,6,2,44,36,450,['n'],0,left,['9'],5,252,[-0.08362641],100,44,hard,plus,dotcolour,alfa,,,114,19,V,R,
258,6,6,6,2,44,36,467,['n'],0,left,['9'],5,216,[-0.04581025],97,44,hard,plus,dotcolour,alfa,,,114,19,V,R,
259,7,7,6,2,27,53,383,['n'],1,right,['9'],5,241,[-0.02319258],85,53,easy,plus,dotcolour,alfa,,,114,19,V,R,
260,8,8,6,2,47,33,467,['n'],0,left,['9'],5,239,[-0.05476102],98,47,medium,plus,dotcolour,alfa,,,114,19,V,R,
261,9,9,6,2,27,53,351,['c'],0,right,['9'],5,248,[0.04040687],95,53,easy,plus,dotcolour,alfa,,,114,19,V,R,
262,10,10,6,2,44,36,383,['n'],0,left,['9'],5,256,[-0.02102595],82,44,hard,plus,dotcolour,alfa,,,114,19,V,R,
263,11,11,6,2,53,27,550,['n'],0,left,['9'],5,264,[0.07793399],0,53,easy,plus,dotcolour,alfa,,,114,19,V,R,
264,12,12,6,2,53,27,466,['n'],0,left,['9'],5,237,[-0.00744596],63,53,easy,plus,dotcolour,alfa,,,114,19,V,R,
265,13,13,6,2,53,27,450,['c'],1,left,['9'],5,258,[0.11115495],100,53,easy,plus,dotcolour,alfa,,,114,19,V,R,
266,14,14,6,2,27,53,483,['n'],1,right,['9'],5,221,[-0.10709457],100,53,easy,plus,dotcolour,alfa,,,114,19,V,R,
267,15,15,6,2,47,33,534,['n'],0,left,['9'],5,304,[-0.01735218],76,47,medium,plus,dotcolour,alfa,,,114,19,V,R,
268,16,16,6,2,27,53,550,['n'],1,right,['9'],5,231,[-0.07296604],100,53,easy,plus,dotcolour,alfa,,,114,19,V,R,
269,17,17,6,2,27,53,383,['n'],1,right,['9'],5,256,[-0.11215914],100,53,easy,plus,dotcolour,alfa,,,114,19,V,R,
270,18,18,6,2,44,36,418,['n'],0,left,['9'],5,254,[-0.05692322],98,44,hard,plus,dotcolour,alfa,,,114,19,V,R,
271,19,19,6,2,53,27,368,['n'],0,left,['9'],5,270,[-0.02009194],80,53,easy,plus,dotcolour,alfa,,,114,19,V,R,
272,20,20,6,2,44,36,517,['n'],0,left,['9'],5,256,[-0.06050927],99,44,hard,plus,dotcolour,alfa,,,114,19,V,R,
273,21,21,6,2,33,47,585,['c'],0,right,['9'],5,263,[0.05179814],97,47,medium,plus,dotcolour,alfa,,,114,19,V,R,
274,22,22,6,2,47,33,518,['n'],0,left,['9'],5,265,[-0.144144],100,47,medium,plus,dotcolour,alfa,,,114,19,V,R,
275,23,23,6,2,44,36,517,['n'],0,left,['9'],5,267,[-0.00982431],66,44,hard,plus,dotcolour,alfa,,,114,19,V,R,
276,24,24,6,2,47,33,566,['n'],0,left,['9'],5,259,[-0.08191551],100,47,medium,plus,dotcolour,alfa,,,114,19,V,R,
277,25,25,6,2,44,36,467,['n'],0,left,['9'],5,287,[-0.05841563],98,44,hard,plus,dotcolour,alfa,,,114,19,V,R,
278,26,26,6,2,36,44,650,['n'],1,right,['9'],5,274,[-0.13239666],100,44,hard,plus,dotcolour,alfa,,,114,19,V,R,
279,27,27,6,2,47,33,468,['c'],1,left,['9'],5,221,[0.12433789],100,47,medium,plus,dotcolour,alfa,,,114,19,V,R,
280,28,28,6,2,27,53,450,['n'],1,right,['9'],5,284,[-0.10971109],100,53,easy,plus,dotcolour,alfa,,,114,19,V,R,
281,29,29,6,2,33,47,500,['n'],1,right,['9'],5,278,[-0.19268605],100,47,medium,plus,dotcolour,alfa,,,114,19,V,R,
282,30,30,6,2,36,44,651,['n'],1,right,['9'],5,250,[0.02208769],17,44,hard,plus,dotcolour,alfa,,,114,19,V,R,
283,31,31,6,2,36,44,718,['n'],1,right,['9'],5,268,[-0.0013657],52,44,hard,plus,dotcolour,alfa,,,114,19,V,R,
284,32,32,6,2,33,47,449,['n'],1,right,['9'],5,298,[-0.06700633],99,47,medium,plus,dotcolour,alfa,,,114,19,V,R,
285,33,33,6,2,36,44,450,['n'],1,right,['9'],5,244,[-0.03533021],93,44,hard,plus,dotcolour,alfa,,,114,19,V,R,
286,34,34,6,2,36,44,518,['n'],1,right,['9'],5,295,[-0.10457814],100,44,hard,plus,dotcolour,alfa,,,114,19,V,R,
287,35,35,6,2,36,44,465,['n'],1,right,['9'],5,233,[-0.00563185],60,44,hard,plus,dotcolour,alfa,,,114,19,V,R,
288,36,36,6,2,47,33,617,['n'],0,left,['9'],5,217,[-0.06743924],99,47,medium,plus,dotcolour,alfa,,,114,19,V,R,
289,37,37,6,2,53,27,816,['c'],1,left,['9'],5,241,[0.0353813],93,53,easy,plus,dotcolour,alfa,,,114,19,V,R,
290,38,38,6,2,33,47,500,['n'],1,right,['9'],5,244,[-0.11633869],100,47,medium,plus,dotcolour,alfa,,,114,19,V,R,
291,39,39,6,2,53,27,517,['n'],0,left,['9'],5,239,[0.04156086],4,53,easy,plus,dotcolour,alfa,,,114,19,V,R,
292,40,40,6,2,47,33,300,['c'],1,left,['9'],5,210,[0.0860742],100,47,medium,plus,dotcolour,alfa,,,114,19,V,R,
293,41,41,6,2,53,27,418,['n'],0,left,['9'],5,218,[0.01141617],29,53,easy,plus,dotcolour,alfa,,,114,19,V,R,
294,42,0,7,2,27,53,685,['n'],1,right,['9'],5,243,[-0.02210205],83,53,easy,plus,dotcolour,alfa,,,114,19,V,R,
295,43,1,7,2,36,44,417,['n'],1,right,['9'],5,257,[-0.08176558],100,44,hard,plus,dotcolour,alfa,,,114,19,V,R,
296,44,2,7,2,36,44,350,['n'],1,right,['9'],5,234,[-0.08273005],100,44,hard,plus,dotcolour,alfa,,,114,19,V,R,
297,45,3,7,2,44,36,385,['n'],0,left,['9'],5,283,[-0.09641366],100,44,hard,plus,dotcolour,alfa,,,114,19,V,R,
298,46,4,7,2,44,36,349,['c'],1,left,['9'],5,220,[0.03085944],91,44,hard,plus,dotcolour,alfa,,,114,19,V,R,
299,47,5,7,2,36,44,317,['n'],1,right,['9'],5,224,[-0.0758336],100,44,hard,plus,dotcolour,alfa,,,114,19,V,R,
300,48,6,7,2,36,44,400,['c'],0,right,['9'],5,279,[0.01417947],72,44,hard,plus,dotcolour,alfa,,,114,19,V,R,
301,49,7,7,2,53,27,267,['n'],0,left,['9'],5,228,[-0.02851982],90,53,easy,plus,dotcolour,alfa,,,114,19,V,R,
302,50,8,7,2,53,27,368,['c'],1,left,['9'],5,227,[0.06664358],99,53,easy,plus,dotcolour,alfa,,,114,19,V,R,
303,51,9,7,2,36,44,283,['n'],1,right,['9'],5,265,[-0.088387],100,44,hard,plus,dotcolour,alfa,,,114,19,V,R,
304,52,10,7,2,47,33,284,['c'],1,left,['9'],5,276,[0.02534892],85,47,medium,plus,dotcolour,alfa,,,114,19,V,R,
305,53,11,7,2,44,36,402,['n'],0,left,['9'],5,218,[-0.11424822],100,44,hard,plus,dotcolour,alfa,,,114,19,V,R,
306,54,12,7,2,44,36,399,['c'],1,left,['9'],5,218,[0.11976757],100,44,hard,plus,dotcolour,alfa,,,114,19,V,R,
307,55,13,7,2,27,53,368,['n'],1,right,['9'],5,261,[-0.10776522],100,53,easy,plus,dotcolour,alfa,,,114,19,V,R,
308,56,14,7,2,44,36,569,['n'],0,left,['9'],5,268,[-0.0361725],93,44,hard,plus,dotcolour,alfa,,,114,19,V,R,
309,57,15,7,2,53,27,650,['c'],1,left,['9'],5,177,[0.06216169],100,53,easy,plus,dotcolour,alfa,,,114,19,V,R,
310,58,16,7,2,33,47,484,['n'],1,right,['9'],5,280,[-0.15474755],100,47,medium,plus,dotcolour,alfa,,,114,19,V,R,
311,59,17,7,2,53,27,683,['c'],1,left,['9'],5,220,[0.14289813],100,53,easy,plus,dotcolour,alfa,,,114,19,V,R,
312,60,18,7,2,53,27,568,['n'],0,left,['9'],5,253,[0.01045018],32,53,easy,plus,dotcolour,alfa,,,114,19,V,R,
313,61,19,7,2,36,44,701,['n'],1,right,['9'],5,231,[-0.11356385],100,44,hard,plus,dotcolour,alfa,,,114,19,V,R,
314,62,20,7,2,47,33,633,['c'],1,left,['9'],5,230,[0.09625884],100,47,medium,plus,dotcolour,alfa,,,114,19,V,R,
315,63,21,7,2,33,47,518,['n'],1,right,['9'],5,273,[-0.06584243],99,47,medium,plus,dotcolour,alfa,,,114,19,V,R,
316,64,22,7,2,33,47,534,['n'],1,right,['9'],5,218,[-0.02246622],85,47,medium,plus,dotcolour,alfa,,,114,19,V,R,
317,65,23,7,2,53,27,585,['c'],1,left,['9'],5,283,[-0.00603285],40,53,easy,plus,dotcolour,alfa,,,114,19,V,R,
318,66,24,7,2,44,36,867,['n'],0,left,['9'],5,215,[-0.00649396],62,44,hard,plus,dotcolour,alfa,,,114,19,V,R,
319,67,25,7,2,27,53,467,['n'],1,right,['9'],5,196,[-0.13357072],100,53,easy,plus,dotcolour,alfa,,,114,19,V,R,
320,68,26,7,2,33,47,633,['n'],1,right,['9'],5,221,[-0.09452992],100,47,medium,plus,dotcolour,alfa,,,114,19,V,R,
321,69,27,7,2,44,36,583,['c'],1,left,['9'],5,230,[0.05292237],98,44,hard,plus,dotcolour,alfa,,,114,19,V,R,
322,70,28,7,2,33,47,500,['n'],1,right,['9'],5,210,[-0.11893971],100,47,medium,plus,dotcolour,alfa,,,114,19,V,R,
323,71,29,7,2,47,33,501,['n'],0,left,['9'],5,198,[0.012069],27,47,medium,plus,dotcolour,alfa,,,114,19,V,R,
324,72,30,7,2,27,53,451,['c'],0,right,['9'],5,221,[0.06997557],100,53,easy,plus,dotcolour,alfa,,,114,19,V,R,
325,73,31,7,2,47,33,666,['c'],1,left,['9'],5,154,[0.10885116],100,47,medium,plus,dotcolour,alfa,,,114,19,V,R,
326,74,32,7,2,53,27,434,['n'],0,left,['9'],5,220,[-0.0382953],95,53,easy,plus,dotcolour,alfa,,,114,19,V,R,
327,75,33,7,2,36,44,384,['n'],1,right,['9'],5,244,[-0.03174205],91,44,hard,plus,dotcolour,alfa,,,114,19,V,R,
328,76,34,7,2,47,33,567,['n'],0,left,['9'],5,245,[-0.07685138],100,47,medium,plus,dotcolour,alfa,,,114,19,V,R,
329,77,35,7,2,33,47,835,['n'],1,right,['9'],5,203,[-0.07514076],100,47,medium,plus,dotcolour,alfa,,,114,19,V,R,
330,78,36,7,2,47,33,684,['n'],0,left,['9'],5,209,[-0.04101674],96,47,medium,plus,dotcolour,alfa,,,114,19,V,R,
331,79,37,7,2,27,53,568,['n'],1,right,['9'],5,187,[-0.15914791],100,53,easy,plus,dotcolour,alfa,,,114,19,V,R,
332,80,38,7,2,27,53,518,['n'],1,right,['9'],5,336,[-0.1293609],100,53,easy,plus,dotcolour,alfa,,,114,19,V,R,
333,81,39,7,2,27,53,501,['n'],1,right,['9'],5,240,[-0.07531286],100,53,easy,plus,dotcolour,alfa,,,114,19,V,R,
334,82,40,7,2,33,47,400,['n'],1,right,['8'],4,255,[-0.16709561],100,47,medium,plus,dotcolour,alfa,,,114,19,V,R,
335,83,41,7,2,47,33,368,['n'],0,left,['9'],5,207,[-0.07698381],100,47,medium,plus,dotcolour,alfa,,,114,19,V,R,
336,84,0,8,2,44,36,734,['c'],1,left,['9'],5,229,[0.09864581],100,44,hard,plus,dotcolour,alfa,,,114,19,V,R,
337,85,1,8,2,44,36,418,['n'],0,left,['9'],5,197,[-0.07207976],100,44,hard,plus,dotcolour,alfa,,,114,19,V,R,
338,86,2,8,2,33,47,400,['n'],1,right,['9'],5,230,[-0.01616854],77,47,medium,plus,dotcolour,alfa,,,114,19,V,R,
339,87,3,8,2,53,27,534,['n'],0,left,['9'],5,209,[-0.02679426],89,53,easy,plus,dotcolour,alfa,,,114,19,V,R,
340,88,4,8,2,36,44,467,['n'],1,right,['9'],5,183,[0.00782886],34,44,hard,plus,dotcolour,alfa,,,114,19,V,R,
341,89,5,8,2,47,33,450,['n'],0,left,['9'],5,214,[-0.07062559],100,47,medium,plus,dotcolour,alfa,,,114,19,V,R,
342,90,6,8,2,33,47,434,['n'],1,right,['9'],5,238,[-0.16878731],100,47,medium,plus,dotcolour,alfa,,,114,19,V,R,
343,91,7,8,2,53,27,634,['n'],0,left,['9'],5,180,[-0.03931368],97,53,easy,plus,dotcolour,alfa,,,114,19,V,R,
344,92,8,8,2,44,36,633,['c'],1,left,['9'],5,158,[0.13541247],100,44,hard,plus,dotcolour,alfa,,,114,19,V,R,
345,93,9,8,2,27,53,434,['n'],1,right,['9'],5,231,[-0.0253969],87,53,easy,plus,dotcolour,alfa,,,114,19,V,R,
346,94,10,8,2,47,33,651,['c'],1,left,['9'],5,204,[0.15116791],100,47,medium,plus,dotcolour,alfa,,,114,19,V,R,
347,95,11,8,2,53,27,517,['n'],0,left,['9'],5,224,[-0.046203],97,53,easy,plus,dotcolour,alfa,,,114,19,V,R,
348,96,12,8,2,47,33,550,['n'],0,left,['9'],5,178,[-0.06744161],100,47,medium,plus,dotcolour,alfa,,,114,19,V,R,
349,97,13,8,2,53,27,717,['c'],1,left,['9'],5,168,[0.14222668],100,53,easy,plus,dotcolour,alfa,,,114,19,V,R,
350,98,14,8,2,47,33,951,['n'],0,left,['9'],5,180,[-0.11791935],100,47,medium,plus,dotcolour,alfa,,,114,19,V,R,
351,99,15,8,2,53,27,651,['c'],1,left,['9'],5,236,[0.16957042],100,53,easy,plus,dotcolour,alfa,,,114,19,V,R,
352,100,16,8,2,27,53,467,['n'],1,right,['9'],5,225,[-0.1540871],100,53,easy,plus,dotcolour,alfa,,,114,19,V,R,
353,101,17,8,2,36,44,701,['c'],0,right,['9'],5,149,[0.04285623],98,44,hard,plus,dotcolour,alfa,,,114,19,V,R,
354,102,18,8,2,27,53,534,['n'],1,right,['9'],5,307,[-0.11954685],100,53,easy,plus,dotcolour,alfa,,,114,19,V,R,
355,103,19,8,2,44,36,450,['n'],0,left,['9'],5,237,[-0.12235886],100,44,hard,plus,dotcolour,alfa,,,114,19,V,R,
356,104,20,8,2,27,53,434,['n'],1,right,['9'],5,213,[-0.12867542],100,53,easy,plus,dotcolour,alfa,,,114,19,V,R,
357,105,21,8,2,44,36,350,['n'],0,left,['9'],5,742,[-0.1295255],100,44,hard,plus,dotcolour,alfa,,,114,19,V,R,
358,106,22,8,2,36,44,500,['n'],1,right,['9'],5,222,[-0.09764008],100,44,hard,plus,dotcolour,alfa,,,114,19,V,R,
359,107,23,8,2,33,47,601,['n'],1,right,['9'],5,239,[-0.030859],91,47,medium,plus,dotcolour,alfa,,,114,19,V,R,
360,108,24,8,2,36,44,652,['c'],0,right,['9'],5,203,[0.06374682],99,44,hard,plus,dotcolour,alfa,,,114,19,V,R,
361,109,25,8,2,36,44,400,['n'],1,right,['9'],5,212,[-0.02988313],91,44,hard,plus,dotcolour,alfa,,,114,19,V,R,
362,110,26,8,2,27,53,466,['n'],1,right,['9'],5,203,[-0.0601474],99,53,easy,plus,dotcolour,alfa,,,114,19,V,R,
363,111,27,8,2,36,44,367,['n'],1,right,['9'],5,253,[-0.10353484],100,44,hard,plus,dotcolour,alfa,,,114,19,V,R,
364,112,28,8,2,53,27,366,['n'],0,left,['9'],5,453,[-0.00186509],52,53,easy,plus,dotcolour,alfa,,,114,19,V,R,
365,113,29,8,2,44,36,534,['n'],0,left,['9'],5,214,[-0.01728086],79,44,hard,plus,dotcolour,alfa,,,114,19,V,R,
366,114,30,8,2,33,47,516,['n'],1,right,['9'],5,194,[-0.11290219],100,47,medium,plus,dotcolour,alfa,,,114,19,V,R,
367,115,31,8,2,53,27,517,['n'],0,left,['9'],5,183,[-0.11974858],100,53,easy,plus,dotcolour,alfa,,,114,19,V,R,
368,116,32,8,2,47,33,485,['n'],0,left,['9'],5,237,[-0.02159392],83,47,medium,plus,dotcolour,alfa,,,114,19,V,R,
369,117,33,8,2,44,36,417,['c'],1,left,['9'],5,204,[0.14602367],100,44,hard,plus,dotcolour,alfa,,,114,19,V,R,
370,118,34,8,2,36,44,450,['n'],1,right,['9'],5,211,[-0.0201265],83,44,hard,plus,dotcolour,alfa,,,114,19,V,R,
371,119,35,8,2,33,47,733,['n'],1,right,['9'],5,174,[-0.05218099],99,47,medium,plus,dotcolour,alfa,,,114,19,V,R,
372,120,36,8,2,27,53,502,['n'],1,right,['9'],5,236,[-0.09150309],100,53,easy,plus,dotcolour,alfa,,,114,19,V,R,
373,121,37,8,2,33,47,350,['n'],1,right,['9'],5,231,[-0.08573817],100,47,medium,plus,dotcolour,alfa,,,114,19,V,R,
374,122,38,8,2,27,53,451,['n'],1,right,['9'],5,228,[-0.1092917],100,53,easy,plus,dotcolour,alfa,,,114,19,V,R,
375,123,39,8,2,33,47,452,['n'],1,right,['9'],5,211,[-0.07324691],100,47,medium,plus,dotcolour,alfa,,,114,19,V,R,
376,124,40,8,2,47,33,317,['n'],0,left,['9'],5,247,[-0.00877802],65,47,medium,plus,dotcolour,alfa,,,114,19,V,R,
377,125,41,8,2,47,33,350,['n'],0,left,['9'],5,264,[-0.07963275],100,47,medium,plus,dotcolour,alfa,,,114,19,V,R,
378,0,0,9,3,33,47,735,['n'],1,right,['9'],5,158,[-0.09493103],90,47,medium,minus,dotcolour,alfa,,,114,19,V,R,
379,1,1,9,3,47,33,317,['n'],0,left,['9'],5,164,[-0.11132764],92,47,medium,minus,dotcolour,alfa,,,114,19,V,R,
380,2,2,9,3,27,53,334,['n'],1,right,['9'],5,201,[0.00091033],50,53,easy,minus,dotcolour,alfa,,,114,19,V,R,
381,3,3,9,3,53,27,333,['n'],0,left,['9'],5,286,[-0.05813346],73,53,easy,minus,dotcolour,alfa,,,114,19,V,R,
382,4,4,9,3,33,47,384,['n'],1,right,['9'],5,196,[-0.09121012],86,47,medium,minus,dotcolour,alfa,,,114,19,V,R,
383,5,5,9,3,47,33,368,['n'],0,left,['9'],5,198,[0.02657143],37,47,medium,minus,dotcolour,alfa,,,114,19,V,R,
384,6,6,9,3,36,44,367,['n'],1,right,['9'],5,185,[-0.04930348],74,44,hard,minus,dotcolour,alfa,,,114,19,V,R,
385,7,7,9,3,27,53,451,['n'],1,right,['9'],5,465,[-0.15146216],88,53,easy,minus,dotcolour,alfa,,,114,19,V,R,
386,8,8,9,3,47,33,334,['n'],0,left,['9'],5,195,[-0.03998667],69,47,medium,minus,dotcolour,alfa,,,114,19,V,R,
387,9,9,9,3,44,36,384,['n'],0,left,['9'],5,197,[-0.02746579],64,44,hard,minus,dotcolour,alfa,,,114,19,V,R,
388,10,10,9,3,36,44,417,['n'],1,right,['9'],5,253,[-0.06364143],76,44,hard,minus,dotcolour,alfa,,,114,19,V,R,
389,11,11,9,3,47,33,351,['n'],0,left,['9'],5,214,[-0.068402],79,47,medium,minus,dotcolour,alfa,,,114,19,V,R,
390,12,12,9,3,33,47,567,['n'],1,right,['9'],5,176,[-0.10726137],91,47,medium,minus,dotcolour,alfa,,,114,19,V,R,
391,13,13,9,3,27,53,718,['n'],1,right,['9'],5,189,[-0.12333032],93,53,easy,minus,dotcolour,alfa,,,114,19,V,R,
392,14,14,9,3,44,36,450,['n'],0,left,['9'],5,205,[-0.19443341],98,44,hard,minus,dotcolour,alfa,,,114,19,V,R,
393,15,15,9,3,44,36,418,['n'],0,left,['9'],5,244,[-0.09816173],86,44,hard,minus,dotcolour,alfa,,,114,19,V,R,
394,16,16,9,3,27,53,484,['n'],1,right,['9'],5,193,[-0.11220551],91,53,easy,minus,dotcolour,alfa,,,114,19,V,R,
395,17,17,9,3,44,36,350,['n'],0,left,['9'],5,196,[-0.03476559],67,44,hard,minus,dotcolour,alfa,,,114,19,V,R,
396,18,18,9,3,36,44,534,['n'],1,right,['9'],5,184,[-0.11821758],92,44,hard,minus,dotcolour,alfa,,,114,19,V,R,
397,19,19,9,3,36,44,467,['n'],1,right,['9'],5,215,[-0.05465766],74,44,hard,minus,dotcolour,alfa,,,114,19,V,R,
398,20,20,9,3,47,33,402,['n'],0,left,['9'],5,201,[0.01214722],44,47,medium,minus,dotcolour,alfa,,,114,19,V,R,
399,21,21,9,3,33,47,450,['n'],1,right,['9'],5,224,[-0.13281629],93,47,medium,minus,dotcolour,alfa,,,114,19,V,R,
400,22,22,9,3,36,44,349,['n'],1,right,['9'],5,217,[-0.02469215],62,44,hard,minus,dotcolour,alfa,,,114,19,V,R,
401,23,23,9,3,53,27,333,['n'],0,left,['9'],5,181,[-0.120925],93,53,easy,minus,dotcolour,alfa,,,114,19,V,R,
402,24,24,9,3,47,33,351,['n'],0,left,['9'],5,177,[-0.07517135],83,47,medium,minus,dotcolour,alfa,,,114,19,V,R,
403,25,25,9,3,53,27,401,['n'],0,left,['9'],5,203,[-0.06247585],78,53,easy,minus,dotcolour,alfa,,,114,19,V,R,
404,26,26,9,3,36,44,417,['n'],1,right,['9'],5,420,[-0.05411743],68,44,hard,minus,dotcolour,alfa,,,114,19,V,R,
405,27,27,9,3,44,36,450,['n'],0,left,['9'],5,241,[-0.01948248],59,44,hard,minus,dotcolour,alfa,,,114,19,V,R,
406,28,28,9,3,53,27,434,['n'],0,left,['9'],5,216,[0.06432995],22,53,easy,minus,dotcolour,alfa,,,114,19,V,R,
407,29,29,9,3,36,44,451,['c'],0,right,['9'],5,214,[0.0665156],78,44,hard,minus,dotcolour,alfa,,,114,19,V,R,
408,30,30,9,3,33,47,318,['n'],1,right,['9'],5,194,[-0.07842762],83,47,medium,minus,dotcolour,alfa,,,114,19,V,R,
409,31,31,9,3,47,33,335,['n'],0,left,['9'],5,190,[-0.04198795],70,47,medium,minus,dotcolour,alfa,,,114,19,V,R,
410,32,32,9,3,33,47,468,['n'],1,right,['9'],5,181,[-0.05608507],77,47,medium,minus,dotcolour,alfa,,,114,19,V,R,
411,33,33,9,3,53,27,418,['n'],0,left,['9'],5,278,[-0.00465588],52,53,easy,minus,dotcolour,alfa,,,114,19,V,R,
412,34,34,9,3,44,36,401,['c'],1,left,['9'],5,220,[0.15929652],96,44,hard,minus,dotcolour,alfa,,,114,19,V,R,
413,35,35,9,3,27,53,351,['n'],1,right,['9'],5,167,[-0.07582069],84,53,easy,minus,dotcolour,alfa,,,114,19,V,R,
414,36,36,9,3,53,27,450,['n'],0,left,['9'],5,183,[0.01059273],44,53,easy,minus,dotcolour,alfa,,,114,19,V,R,
415,37,37,9,3,53,27,384,['c'],1,left,['9'],5,193,[0.11977001],92,53,easy,minus,dotcolour,alfa,,,114,19,V,R,
416,38,38,9,3,44,36,534,['c'],1,left,['9'],5,181,[0.08738406],86,44,hard,minus,dotcolour,alfa,,,114,19,V,R,
417,39,39,9,3,27,53,484,['n'],1,right,['9'],5,236,[-0.11248618],89,53,easy,minus,dotcolour,alfa,,,114,19,V,R,
418,40,40,9,3,27,53,416,['n'],1,right,['9'],5,171,[-0.14253027],96,53,easy,minus,dotcolour,alfa,,,114,19,V,R,
419,41,41,9,3,33,47,384,['n'],1,right,['9'],5,286,[-0.0311204],63,47,medium,minus,dotcolour,alfa,,,114,19,V,R,
420,42,0,10,3,27,53,784,['n'],1,right,['9'],5,363,[-0.13164],88,53,easy,minus,dotcolour,alfa,,,114,19,V,R,
421,43,1,10,3,36,44,367,['n'],1,right,['9'],5,191,[-0.05181609],74,44,hard,minus,dotcolour,alfa,,,114,19,V,R,
422,44,2,10,3,27,53,351,['n'],1,right,['9'],5,242,[-0.05220603],72,53,easy,minus,dotcolour,alfa,,,114,19,V,R,
423,45,3,10,3,44,36,351,['n'],0,left,['9'],5,315,[-0.16984903],94,44,hard,minus,dotcolour,alfa,,,114,19,V,R,
424,46,4,10,3,27,53,367,['n'],1,right,['9'],5,258,[-0.15161731],94,53,easy,minus,dotcolour,alfa,,,114,19,V,R,
425,47,5,10,3,33,47,351,['n'],1,right,['9'],5,242,[-0.02091306],59,47,medium,minus,dotcolour,alfa,,,114,19,V,R,
426,48,6,10,3,44,36,467,['c'],1,left,['9'],5,183,[0.17919599],98,44,hard,minus,dotcolour,alfa,,,114,19,V,R,
427,49,7,10,3,33,47,351,['n'],1,right,['9'],5,179,[-0.0158209],58,47,medium,minus,dotcolour,alfa,,,114,19,V,R,
428,50,8,10,3,47,33,451,['n'],0,left,['9'],5,251,[-0.13596326],92,47,medium,minus,dotcolour,alfa,,,114,19,V,R,
429,51,9,10,3,44,36,500,['n'],0,left,['9'],5,294,[-0.04415678],68,44,hard,minus,dotcolour,alfa,,,114,19,V,R,
430,52,10,10,3,33,47,417,['n'],1,right,['9'],5,251,[-0.14959173],94,47,medium,minus,dotcolour,alfa,,,114,19,V,R,
431,53,11,10,3,33,47,367,['n'],1,right,['9'],5,252,[-0.1653804],95,47,medium,minus,dotcolour,alfa,,,114,19,V,R,
432,54,12,10,3,53,27,384,['n'],0,left,['9'],5,228,[-0.00102482],50,53,easy,minus,dotcolour,alfa,,,114,19,V,R,
433,55,13,10,3,33,47,399,['c'],0,right,['9'],5,221,[0.03434892],66,47,medium,minus,dotcolour,alfa,,,114,19,V,R,
434,56,14,10,3,47,33,384,['n'],0,left,['9'],5,349,[-0.00181102],51,47,medium,minus,dotcolour,alfa,,,114,19,V,R,
435,57,15,10,3,33,47,401,['c'],0,right,['9'],5,216,[-0.00108004],49,47,medium,minus,dotcolour,alfa,,,114,19,V,R,
436,58,16,10,3,27,53,350,['n'],1,right,['9'],5,227,[-0.14570471],94,53,easy,minus,dotcolour,alfa,,,114,19,V,R,
437,59,17,10,3,53,27,401,['n'],0,left,['9'],5,292,[-0.01705125],57,53,easy,minus,dotcolour,alfa,,,114,19,V,R,
438,60,18,10,3,44,36,350,['c'],1,left,['9'],5,178,[0.02516266],63,44,hard,minus,dotcolour,alfa,,,114,19,V,R,
439,61,19,10,3,47,33,401,['n'],0,left,['9'],5,228,[-0.00632437],53,47,medium,minus,dotcolour,alfa,,,114,19,V,R,
440,62,20,10,3,44,36,418,['c'],1,left,['9'],5,300,[0.06634595],75,44,hard,minus,dotcolour,alfa,,,114,19,V,R,
441,63,21,10,3,47,33,417,['n'],0,left,['9'],5,281,[-0.05342748],71,47,medium,minus,dotcolour,alfa,,,114,19,V,R,
442,64,22,10,3,53,27,317,['n'],0,left,['9'],5,298,[-0.03368515],64,53,easy,minus,dotcolour,alfa,,,114,19,V,R,
443,65,23,10,3,36,44,433,['c'],0,right,['9'],5,286,[0.01438546],56,44,hard,minus,dotcolour,alfa,,,114,19,V,R,
444,66,24,10,3,36,44,618,['c'],0,right,['9'],5,114,[0.01963007],63,44,hard,minus,dotcolour,alfa,,,114,19,V,R,
445,67,25,10,3,36,44,383,['n'],1,right,['9'],5,217,[-0.10580987],89,44,hard,minus,dotcolour,alfa,,,114,19,V,R,
446,68,26,10,3,44,36,417,['n'],0,left,['9'],5,248,[-0.09918581],86,44,hard,minus,dotcolour,alfa,,,114,19,V,R,
447,69,27,10,3,36,44,317,['n'],1,right,['9'],5,258,[-0.2322539],98,44,hard,minus,dotcolour,alfa,,,114,19,V,R,
448,70,28,10,3,47,33,434,['n'],0,left,['9'],5,248,[-0.08094788],81,47,medium,minus,dotcolour,alfa,,,114,19,V,R,
449,71,29,10,3,53,27,482,['n'],0,left,['9'],5,244,[-0.01904145],59,53,easy,minus,dotcolour,alfa,,,114,19,V,R,
450,72,30,10,3,53,27,267,['c'],1,left,['9'],5,272,[0.12231719],89,53,easy,minus,dotcolour,alfa,,,114,19,V,R,
451,73,31,10,3,33,47,300,['n'],1,right,['9'],5,234,[-0.09799086],86,47,medium,minus,dotcolour,alfa,,,114,19,V,R,
452,74,32,10,3,44,36,451,['n'],0,left,['9'],5,241,[-0.08356606],82,44,hard,minus,dotcolour,alfa,,,114,19,V,R,
453,75,33,10,3,53,27,400,['n'],0,left,['9'],5,216,[-0.07593754],81,53,easy,minus,dotcolour,alfa,,,114,19,V,R,
454,76,34,10,3,36,44,384,['n'],1,right,['9'],5,266,[-0.14416891],93,44,hard,minus,dotcolour,alfa,,,114,19,V,R,
455,77,35,10,3,53,27,385,['n'],0,left,['9'],5,225,[-0.02347358],61,53,easy,minus,dotcolour,alfa,,,114,19,V,R,
456,78,36,10,3,27,53,317,['c'],0,right,['9'],5,276,[0.10071546],85,53,easy,minus,dotcolour,alfa,,,114,19,V,R,
457,79,37,10,3,47,33,367,['n'],0,left,['9'],5,212,[-0.09683177],87,47,medium,minus,dotcolour,alfa,,,114,19,V,R,
458,80,38,10,3,47,33,384,['n'],0,left,['9'],5,285,[0.02853264],38,47,medium,minus,dotcolour,alfa,,,114,19,V,R,
459,81,39,10,3,36,44,566,['n'],1,right,['9'],5,292,[-0.13203146],90,44,hard,minus,dotcolour,alfa,,,114,19,V,R,
460,82,40,10,3,27,53,450,['c'],0,right,['9'],5,287,[-0.15125432],7,53,easy,minus,dotcolour,alfa,,,114,19,V,R,
461,83,41,10,3,27,53,399,['n'],1,right,['9'],5,316,[-0.24846023],98,53,easy,minus,dotcolour,alfa,,,114,19,V,R,
462,84,0,11,3,53,27,668,['n'],0,left,['9'],5,241,[-0.0649573],77,53,easy,minus,dotcolour,alfa,,,114,19,V,R,
463,85,1,11,3,36,44,284,['n'],1,right,['9'],5,310,[-0.07018663],76,44,hard,minus,dotcolour,alfa,,,114,19,V,R,
464,86,2,11,3,47,33,284,['n'],0,left,['9'],5,231,[0.01629988],42,47,medium,minus,dotcolour,alfa,,,114,19,V,R,
465,87,3,11,3,47,33,351,['c'],1,left,['9'],5,201,[0.05205219],74,47,medium,minus,dotcolour,alfa,,,114,19,V,R,
466,88,4,11,3,33,47,350,['n'],1,right,['9'],5,245,[-0.12541791],91,47,medium,minus,dotcolour,alfa,,,114,19,V,R,
467,89,5,11,3,27,53,617,['n'],1,right,['9'],5,243,[-0.09303311],85,53,easy,minus,dotcolour,alfa,,,114,19,V,R,
468,90,6,11,3,53,27,616,['c'],1,left,['9'],5,194,[0.13092191],94,53,easy,minus,dotcolour,alfa,,,114,19,V,R,
469,91,7,11,3,53,27,401,['n'],0,left,['9'],5,290,[-0.02666803],61,53,easy,minus,dotcolour,alfa,,,114,19,V,R,
470,92,8,11,3,27,53,401,['c'],0,right,['9'],5,176,[0.01912127],60,53,easy,minus,dotcolour,alfa,,,114,19,V,R,
471,93,9,11,3,36,44,351,['n'],1,right,['9'],5,244,[-0.05583574],73,44,hard,minus,dotcolour,alfa,,,114,19,V,R,
472,94,10,11,3,33,47,451,['n'],1,right,['9'],5,202,[-0.03453649],67,47,medium,minus,dotcolour,alfa,,,114,19,V,R,
473,95,11,11,3,36,44,384,['n'],1,right,['9'],5,235,[-0.05166596],72,44,hard,minus,dotcolour,alfa,,,114,19,V,R,
474,96,12,11,3,33,47,334,['n'],1,right,['9'],5,222,[-0.04659338],71,47,medium,minus,dotcolour,alfa,,,114,19,V,R,
475,97,13,11,3,33,47,316,['n'],1,right,['9'],5,185,[-0.03559709],68,47,medium,minus,dotcolour,alfa,,,114,19,V,R,
476,98,14,11,3,36,44,333,['n'],1,right,['9'],5,222,[-0.09371115],86,44,hard,minus,dotcolour,alfa,,,114,19,V,R,
477,99,15,11,3,44,36,301,['n'],0,left,['9'],5,242,[-0.08121004],82,44,hard,minus,dotcolour,alfa,,,114,19,V,R,
478,100,16,11,3,36,44,352,['n'],1,right,['9'],5,203,[-0.15916993],96,44,hard,minus,dotcolour,alfa,,,114,19,V,R,
479,101,17,11,3,44,36,384,['n'],0,left,['9'],5,246,[-0.10313402],87,44,hard,minus,dotcolour,alfa,,,114,19,V,R,
480,102,18,11,3,44,36,368,['n'],0,left,['9'],5,214,[-0.04667213],71,44,hard,minus,dotcolour,alfa,,,114,19,V,R,
481,103,19,11,3,47,33,400,['n'],0,left,['9'],5,270,[-0.07981988],80,47,medium,minus,dotcolour,alfa,,,114,19,V,R,
482,104,20,11,3,47,33,451,['n'],0,left,['0'],6,307,[-0.14443199],91,47,medium,minus,dotcolour,alfa,,,114,19,V,R,
483,105,21,11,3,27,53,434,['n'],1,right,['0'],6,246,[-0.06771958],77,53,easy,minus,dotcolour,alfa,,,114,19,V,R,
484,106,22,11,3,36,44,517,['n'],1,right,['0'],6,248,[-0.13667837],92,44,hard,minus,dotcolour,alfa,,,114,19,V,R,
485,107,23,11,3,47,33,433,['n'],0,left,['9'],5,246,[-0.02438511],61,47,medium,minus,dotcolour,alfa,,,114,19,V,R,
486,108,24,11,3,27,53,384,['n'],1,right,['9'],5,278,[-0.08724355],82,53,easy,minus,dotcolour,alfa,,,114,19,V,R,
487,109,25,11,3,33,47,466,['n'],1,right,['0'],6,210,[-0.04543687],71,47,medium,minus,dotcolour,alfa,,,114,19,V,R,
488,110,26,11,3,33,47,351,['n'],1,right,['0'],6,284,[-0.12028473],88,47,medium,minus,dotcolour,alfa,,,114,19,V,R,
489,111,27,11,3,53,27,818,['c'],1,left,['0'],6,241,[0.10284598],87,53,easy,minus,dotcolour,alfa,,,114,19,V,R,
490,112,28,11,3,33,47,650,['n'],1,right,['0'],6,191,[-0.06734209],80,47,medium,minus,dotcolour,alfa,,,114,19,V,R,
491,113,29,11,3,44,36,617,['n'],0,left,['0'],6,305,[0.06081266],27,44,hard,minus,dotcolour,alfa,,,114,19,V,R,
492,114,30,11,3,47,33,350,['n'],0,left,['0'],6,214,[-0.01908353],59,47,medium,minus,dotcolour,alfa,,,114,19,V,R,
493,115,31,11,3,47,33,417,['n'],0,left,['0'],6,255,[0.06986242],22,47,medium,minus,dotcolour,alfa,,,114,19,V,R,
494,116,32,11,3,27,53,451,['n'],1,right,['0'],6,244,[-0.15706936],95,53,easy,minus,dotcolour,alfa,,,114,19,V,R,
495,117,33,11,3,53,27,351,['n'],0,left,['0'],6,220,[-0.06102083],76,53,easy,minus,dotcolour,alfa,,,114,19,V,R,
496,118,34,11,3,36,44,384,['c'],0,right,['0'],6,301,[0.05194775],70,44,hard,minus,dotcolour,alfa,,,114,19,V,R,
497,119,35,11,3,53,27,352,['n'],0,left,['0'],6,284,[-0.02865949],62,53,easy,minus,dotcolour,alfa,,,114,19,V,R,
498,120,36,11,3,44,36,433,['n'],0,left,['0'],6,457,[-0.11848886],83,44,hard,minus,dotcolour,alfa,,,114,19,V,R,
499,121,37,11,3,27,53,734,['n'],1,right,['0'],6,194,[-0.10260624],89,53,easy,minus,dotcolour,alfa,,,114,19,V,R,
500,122,38,11,3,53,27,367,['n'],0,left,['0'],6,269,[-0.0078377],53,53,easy,minus,dotcolour,alfa,,,114,19,V,R,
501,123,39,11,3,44,36,300,['n'],0,left,['0'],6,208,[-0.07897888],83,44,hard,minus,dotcolour,alfa,,,114,19,V,R,
502,124,40,11,3,27,53,336,['n'],1,right,['0'],6,267,[-0.16547105],95,53,easy,minus,dotcolour,alfa,,,114,19,V,R,
503,125,41,11,3,44,36,333,['n'],0,left,['0'],6,269,[0.01672845],43,44,hard,minus,dotcolour,alfa,,,114,19,V,R,
504,0,0,12,4,53,27,901,['c'],1,left,['0'],6,187,[0.09430112],100,53,easy,plus,dotcolour,alfa,,,114,19,V,R,
505,1,1,12,4,47,33,232,['n'],0,left,['0'],6,267,[-0.04644476],96,47,medium,plus,dotcolour,alfa,,,114,19,V,R,
506,2,2,12,4,53,27,433,['n'],0,left,['9'],5,224,[-0.01690862],78,53,easy,plus,dotcolour,alfa,,,114,19,V,R,
507,3,3,12,4,27,53,368,['n'],1,right,['9'],5,226,[-0.12353717],100,53,easy,plus,dotcolour,alfa,,,114,19,V,R,
508,4,4,12,4,36,44,368,['n'],1,right,['9'],5,227,[-0.04431403],97,44,hard,plus,dotcolour,alfa,,,114,19,V,R,
509,5,5,12,4,44,36,417,['n'],0,left,['9'],5,242,[-0.14326738],100,44,hard,plus,dotcolour,alfa,,,114,19,V,R,
510,6,6,12,4,44,36,299,['n'],0,left,['9'],5,262,[-0.01300813],71,44,hard,plus,dotcolour,alfa,,,114,19,V,R,
511,7,7,12,4,36,44,350,['n'],1,right,['9'],5,310,[-0.05561374],97,44,hard,plus,dotcolour,alfa,,,114,19,V,R,
512,8,8,12,4,36,44,367,['n'],1,right,['9'],5,284,[-0.05937367],98,44,hard,plus,dotcolour,alfa,,,114,19,V,R,
513,9,9,12,4,27,53,484,['n'],1,right,['9'],5,183,[-0.13987312],100,53,easy,plus,dotcolour,alfa,,,114,19,V,R,
514,10,10,12,4,44,36,367,['n'],0,left,['9'],5,178,[-0.16562421],100,44,hard,plus,dotcolour,alfa,,,114,19,V,R,
515,11,11,12,4,36,44,351,['n'],1,right,['9'],5,174,[-0.15213908],100,44,hard,plus,dotcolour,alfa,,,114,19,V,R,
516,12,12,12,4,44,36,384,['n'],0,left,['9'],5,209,[-0.07288229],100,44,hard,plus,dotcolour,alfa,,,114,19,V,R,
517,13,13,12,4,27,53,284,['n'],1,right,['9'],5,206,[-0.08862797],100,53,easy,plus,dotcolour,alfa,,,114,19,V,R,
518,14,14,12,4,33,47,319,['n'],1,right,['9'],5,219,[-0.13705291],100,47,medium,plus,dotcolour,alfa,,,114,19,V,R,
519,15,15,12,4,53,27,383,['n'],0,left,['9'],5,173,[-0.06089562],99,53,easy,plus,dotcolour,alfa,,,114,19,V,R,
520,16,16,12,4,33,47,317,['n'],1,right,['9'],5,169,[-0.09302799],100,47,medium,plus,dotcolour,alfa,,,114,19,V,R,
521,17,17,12,4,47,33,300,['n'],0,left,['9'],5,185,[-0.01687494],80,47,medium,plus,dotcolour,alfa,,,114,19,V,R,
522,18,18,12,4,47,33,366,['n'],0,left,['9'],5,213,[-0.02845568],90,47,medium,plus,dotcolour,alfa,,,114,19,V,R,
523,19,19,12,4,53,27,316,['n'],0,left,['9'],5,279,[0.03195615],10,53,easy,plus,dotcolour,alfa,,,114,19,V,R,
524,20,20,12,4,27,53,367,['c'],0,right,['9'],5,223,[-0.00967911],32,53,easy,plus,dotcolour,alfa,,,114,19,V,R,
525,21,21,12,4,33,47,550,['n'],1,right,['9'],5,1297,[-0.20499619],100,47,medium,plus,dotcolour,alfa,,,114,19,V,R,
526,22,22,12,4,47,33,534,['n'],0,left,['9'],5,176,[-0.0535804],99,47,medium,plus,dotcolour,alfa,,,114,19,V,R,
527,23,23,12,4,33,47,467,['n'],1,right,['9'],5,191,[-0.0380777],96,47,medium,plus,dotcolour,alfa,,,114,19,V,R,
528,24,24,12,4,44,36,1066,['n'],0,left,['9'],5,319,[-0.01454178],72,44,hard,plus,dotcolour,alfa,,,114,19,V,R,
529,25,25,12,4,47,33,551,['n'],0,left,['9'],5,197,[-0.11705351],100,47,medium,plus,dotcolour,alfa,,,114,19,V,R,
530,26,26,12,4,27,53,385,['n'],1,right,['9'],5,183,[-0.10496947],100,53,easy,plus,dotcolour,alfa,,,114,19,V,R,
531,27,27,12,4,53,27,316,['n'],0,left,['9'],5,221,[-0.05672577],99,53,easy,plus,dotcolour,alfa,,,114,19,V,R,
532,28,28,12,4,27,53,500,['n'],1,right,['9'],5,177,[-0.07870407],100,53,easy,plus,dotcolour,alfa,,,114,19,V,R,
533,29,29,12,4,27,53,450,['c'],0,right,['9'],5,257,[-0.00914611],34,53,easy,plus,dotcolour,alfa,,,114,19,V,R,
534,30,30,12,4,53,27,617,['n'],0,left,['9'],5,190,[-0.05707376],99,53,easy,plus,dotcolour,alfa,,,114,19,V,R,
535,31,31,12,4,47,33,367,['c'],1,left,['9'],5,129,[0.10454289],100,47,medium,plus,dotcolour,alfa,,,114,19,V,R,
536,32,32,12,4,36,44,618,['n'],1,right,['9'],5,148,[-0.08956766],100,44,hard,plus,dotcolour,alfa,,,114,19,V,R,
537,33,33,12,4,33,47,466,['n'],1,right,['9'],5,141,[-0.0856166],100,47,medium,plus,dotcolour,alfa,,,114,19,V,R,
538,34,34,12,4,36,44,351,['n'],1,right,['9'],5,179,[-0.13203909],100,44,hard,plus,dotcolour,alfa,,,114,19,V,R,
539,35,35,12,4,36,44,300,['n'],1,right,['9'],5,169,[-0.09152615],100,44,hard,plus,dotcolour,alfa,,,114,19,V,R,
540,36,36,12,4,33,47,334,['n'],1,right,['9'],5,175,[-0.10494251],100,47,medium,plus,dotcolour,alfa,,,114,19,V,R,
541,37,37,12,4,53,27,385,['n'],0,left,['9'],5,162,[-0.13946131],100,53,easy,plus,dotcolour,alfa,,,114,19,V,R,
542,38,38,12,4,44,36,434,['c'],1,left,['9'],5,98,[0.07487109],100,44,hard,plus,dotcolour,alfa,,,114,19,V,R,
543,39,39,12,4,44,36,433,['c'],1,left,['9'],5,142,[0.0762742],100,44,hard,plus,dotcolour,alfa,,,114,19,V,R,
544,40,40,12,4,47,33,450,['n'],0,left,['9'],5,152,[-0.07175818],100,47,medium,plus,dotcolour,alfa,,,114,19,V,R,
545,41,41,12,4,33,47,333,['n'],1,right,['9'],5,174,[0.01914479],16,47,medium,plus,dotcolour,alfa,,,114,19,V,R,
546,42,0,13,4,44,36,551,['n'],0,left,['9'],5,147,[-0.05241655],99,44,hard,plus,dotcolour,alfa,,,114,19,V,R,
547,43,1,13,4,27,53,282,['n'],1,right,['9'],5,202,[-0.00886026],67,53,easy,plus,dotcolour,alfa,,,114,19,V,R,
548,44,2,13,4,53,27,319,['n'],0,left,['9'],5,183,[-0.02093538],85,53,easy,plus,dotcolour,alfa,,,114,19,V,R,
549,45,3,13,4,53,27,350,['n'],0,left,['9'],5,171,[-0.00432383],59,53,easy,plus,dotcolour,alfa,,,114,19,V,R,
550,46,4,13,4,44,36,367,['n'],0,left,['9'],5,167,[-0.04962107],99,44,hard,plus,dotcolour,alfa,,,114,19,V,R,
551,47,5,13,4,33,47,334,['n'],1,right,['9'],5,148,[-0.05105073],99,47,medium,plus,dotcolour,alfa,,,114,19,V,R,
552,48,6,13,4,27,53,316,['n'],1,right,['9'],5,219,[-0.09529983],100,53,easy,plus,dotcolour,alfa,,,114,19,V,R,
553,49,7,13,4,47,33,284,['n'],0,left,['9'],5,200,[-0.05621002],99,47,medium,plus,dotcolour,alfa,,,114,19,V,R,
554,50,8,13,4,44,36,316,['n'],0,left,['9'],5,149,[-0.12297325],100,44,hard,plus,dotcolour,alfa,,,114,19,V,R,
555,51,9,13,4,47,33,335,['n'],0,left,['9'],5,211,[-0.08991762],100,47,medium,plus,dotcolour,alfa,,,114,19,V,R,
556,52,10,13,4,33,47,335,['c'],0,right,['9'],5,150,[0.02762204],93,47,medium,plus,dotcolour,alfa,,,114,19,V,R,
557,53,11,13,4,33,47,266,['n'],1,right,['9'],5,199,[-0.11286802],100,47,medium,plus,dotcolour,alfa,,,114,19,V,R,
558,54,12,13,4,53,27,668,['c'],1,left,['9'],5,166,[0.10443748],100,53,easy,plus,dotcolour,alfa,,,114,19,V,R,
559,55,13,13,4,53,27,316,['n'],0,left,['9'],5,187,[-0.04145106],97,53,easy,plus,dotcolour,alfa,,,114,19,V,R,
560,56,14,13,4,36,44,1117,['n'],1,right,['9'],5,144,[-0.1383232],100,44,hard,plus,dotcolour,alfa,,,114,19,V,R,
561,57,15,13,4,47,33,567,['c'],1,left,['9'],5,134,[0.13176472],100,47,medium,plus,dotcolour,alfa,,,114,19,V,R,
562,58,16,13,4,33,47,334,['n'],1,right,['9'],5,187,[-0.08499274],100,47,medium,plus,dotcolour,alfa,,,114,19,V,R,
563,59,17,13,4,47,33,501,['c'],1,left,['9'],5,121,[0.11824004],100,47,medium,plus,dotcolour,alfa,,,114,19,V,R,
564,60,18,13,4,36,44,334,['n'],1,right,['9'],5,152,[-0.08441114],100,44,hard,plus,dotcolour,alfa,,,114,19,V,R,
565,61,19,13,4,44,36,517,['n'],0,left,['9'],5,207,[-0.14766801],100,44,hard,plus,dotcolour,alfa,,,114,19,V,R,
566,62,20,13,4,36,44,384,['c'],0,right,['9'],5,208,[0.08325929],100,44,hard,plus,dotcolour,alfa,,,114,19,V,R,
567,63,21,13,4,36,44,317,['n'],1,right,['9'],5,164,[-0.04535343],98,44,hard,plus,dotcolour,alfa,,,114,19,V,R,
568,64,22,13,4,53,27,367,['n'],0,left,['9'],5,160,[-0.08440412],100,53,easy,plus,dotcolour,alfa,,,114,19,V,R,
569,65,23,13,4,47,33,401,['n'],0,left,['9'],5,27,[-0.05879781],100,47,medium,plus,dotcolour,alfa,,,114,19,V,R,
570,66,24,13,4,27,53,466,['n'],1,right,['9'],5,248,[-0.12564892],100,53,easy,plus,dotcolour,alfa,,,114,19,V,R,
571,67,25,13,4,36,44,334,['n'],1,right,['9'],5,242,[-0.0564536],98,44,hard,plus,dotcolour,alfa,,,114,19,V,R,
572,68,26,13,4,27,53,567,['n'],1,right,['9'],5,179,[-0.10305217],100,53,easy,plus,dotcolour,alfa,,,114,19,V,R,
573,69,27,13,4,53,27,400,['n'],0,left,['9'],5,236,[-0.01353072],73,53,easy,plus,dotcolour,alfa,,,114,19,V,R,
574,70,28,13,4,47,33,450,['n'],0,left,['9'],5,187,[-0.09125064],100,47,medium,plus,dotcolour,alfa,,,114,19,V,R,
575,71,29,13,4,36,44,383,['n'],1,right,['9'],5,165,[-0.03557248],96,44,hard,plus,dotcolour,alfa,,,114,19,V,R,
576,72,30,13,4,27,53,367,['n'],1,right,['9'],5,241,[-0.05983805],99,53,easy,plus,dotcolour,alfa,,,114,19,V,R,
577,73,31,13,4,33,47,301,['n'],1,right,['9'],5,269,[-0.07764608],100,47,medium,plus,dotcolour,alfa,,,114,19,V,R,
578,74,32,13,4,44,36,300,['n'],0,left,['9'],5,215,[-0.01756552],80,44,hard,plus,dotcolour,alfa,,,114,19,V,R,
579,75,33,13,4,44,36,267,['n'],0,left,['9'],5,189,[-0.089162],100,44,hard,plus,dotcolour,alfa,,,114,19,V,R,
580,76,34,13,4,33,47,316,['c'],0,right,['9'],5,178,[0.00120649],53,47,medium,plus,dotcolour,alfa,,,114,19,V,R,
581,77,35,13,4,27,53,335,['n'],1,right,['9'],5,198,[-0.15682873],100,53,easy,plus,dotcolour,alfa,,,114,19,V,R,
582,78,36,13,4,36,44,333,['n'],1,right,['9'],5,156,[-0.05201793],99,44,hard,plus,dotcolour,alfa,,,114,19,V,R,
583,79,37,13,4,33,47,301,['n'],1,right,['9'],5,306,[-0.10759175],100,47,medium,plus,dotcolour,alfa,,,114,19,V,R,
584,80,38,13,4,27,53,384,['n'],1,right,['9'],5,191,[-0.07362631],100,53,easy,plus,dotcolour,alfa,,,114,19,V,R,
585,81,39,13,4,53,27,284,['n'],0,left,['9'],5,164,[-0.03632524],96,53,easy,plus,dotcolour,alfa,,,114,19,V,R,
586,82,40,13,4,47,33,334,['n'],0,left,['9'],5,170,[-0.01581875],80,47,medium,plus,dotcolour,alfa,,,114,19,V,R,
587,83,41,13,4,44,36,284,['n'],0,left,['9'],5,177,[-0.03961613],97,44,hard,plus,dotcolour,alfa,,,114,19,V,R,
588,84,0,14,4,53,27,585,['n'],0,left,['9'],5,204,[-0.10140565],100,53,easy,plus,dotcolour,alfa,,,114,19,V,R,
589,85,1,14,4,47,33,433,['c'],1,left,['9'],5,171,[0.05480654],99,47,medium,plus,dotcolour,alfa,,,114,19,V,R,
590,86,2,14,4,44,36,384,['n'],0,left,['9'],5,238,[-0.06506006],99,44,hard,plus,dotcolour,alfa,,,114,19,V,R,
591,87,3,14,4,33,47,635,['c'],0,right,['9'],5,796,[-0.01166332],38,47,medium,plus,dotcolour,alfa,,,114,19,V,R,
592,88,4,14,4,47,33,350,['n'],0,left,['9'],5,143,[-0.06103612],100,47,medium,plus,dotcolour,alfa,,,114,19,V,R,
593,89,5,14,4,53,27,467,['c'],1,left,['9'],5,128,[0.14181328],100,53,easy,plus,dotcolour,alfa,,,114,19,V,R,
594,90,6,14,4,33,47,434,['n'],1,right,['9'],5,250,[-0.05162098],98,47,medium,plus,dotcolour,alfa,,,114,19,V,R,
595,91,7,14,4,27,53,433,['n'],1,right,['9'],5,169,[-0.12057626],100,53,easy,plus,dotcolour,alfa,,,114,19,V,R,
596,92,8,14,4,47,33,333,['n'],0,left,['9'],5,150,[-0.04887633],99,47,medium,plus,dotcolour,alfa,,,114,19,V,R,
597,93,9,14,4,36,44,584,['c'],0,right,['9'],5,154,[0.0934824],100,44,hard,plus,dotcolour,alfa,,,114,19,V,R,
598,94,10,14,4,44,36,466,['n'],0,left,['9'],5,226,[-0.02875333],90,44,hard,plus,dotcolour,alfa,,,114,19,V,R,
599,95,11,14,4,27,53,484,['n'],1,right,['9'],5,159,[-0.09847708],100,53,easy,plus,dotcolour,alfa,,,114,19,V,R,
600,96,12,14,4,53,27,635,['c'],1,left,['9'],5,121,[0.08294205],100,53,easy,plus,dotcolour,alfa,,,114,19,V,R,
601,97,13,14,4,33,47,333,['n'],1,right,['9'],5,183,[-0.09862838],100,47,medium,plus,dotcolour,alfa,,,114,19,V,R,
602,98,14,14,4,27,53,451,['n'],1,right,['9'],5,175,[-0.06322106],100,53,easy,plus,dotcolour,alfa,,,114,19,V,R,
603,99,15,14,4,47,33,383,['n'],0,left,['9'],5,155,[-0.11808443],100,47,medium,plus,dotcolour,alfa,,,114,19,V,R,
604,100,16,14,4,47,33,333,['n'],0,left,['9'],5,111,[-0.06949637],100,47,medium,plus,dotcolour,alfa,,,114,19,V,R,
605,101,17,14,4,27,53,484,['n'],1,right,['9'],5,137,[-0.12326491],100,53,easy,plus,dotcolour,alfa,,,114,19,V,R,
606,102,18,14,4,33,47,400,['n'],1,right,['9'],5,165,[-0.08674926],100,47,medium,plus,dotcolour,alfa,,,114,19,V,R,
607,103,19,14,4,33,47,850,['n'],1,right,['9'],5,166,[-0.04449426],98,47,medium,plus,dotcolour,alfa,,,114,19,V,R,
608,104,20,14,4,36,44,634,['c'],0,right,['9'],5,143,[0.08081929],100,44,hard,plus,dotcolour,alfa,,,114,19,V,R,
609,105,21,14,4,47,33,451,['n'],0,left,['9'],5,192,[-0.10474412],100,47,medium,plus,dotcolour,alfa,,,114,19,V,R,
610,106,22,14,4,27,53,500,['n'],1,right,['9'],5,238,[-0.17295694],100,53,easy,plus,dotcolour,alfa,,,114,19,V,R,
611,107,23,14,4,27,53,468,['n'],1,right,['9'],5,194,[-0.09025616],100,53,easy,plus,dotcolour,alfa,,,114,19,V,R,
612,108,24,14,4,53,27,517,['n'],0,left,['9'],5,183,[0.00866457],33,53,easy,plus,dotcolour,alfa,,,114,19,V,R,
613,109,25,14,4,53,27,433,['c'],1,left,['9'],5,143,[0.06644331],100,53,easy,plus,dotcolour,alfa,,,114,19,V,R,
614,110,26,14,4,33,47,366,['n'],1,right,['9'],5,420,[-0.16966465],100,47,medium,plus,dotcolour,alfa,,,114,19,V,R,
615,111,27,14,4,36,44,385,['c'],0,right,['9'],5,133,[0.10640147],100,44,hard,plus,dotcolour,alfa,,,114,19,V,R,
616,112,28,14,4,44,36,367,['n'],0,left,['9'],5,155,[-0.08417975],100,44,hard,plus,dotcolour,alfa,,,114,19,V,R,
617,113,29,14,4,27,53,418,['n'],1,right,['9'],5,172,[-0.05509181],99,53,easy,plus,dotcolour,alfa,,,114,19,V,R,
618,114,30,14,4,53,27,502,['n'],0,left,['9'],5,170,[-0.02828202],92,53,easy,plus,dotcolour,alfa,,,114,19,V,R,
619,115,31,14,4,44,36,432,['c'],1,left,['9'],5,115,[0.02571026],94,44,hard,plus,dotcolour,alfa,,,114,19,V,R,
620,116,32,14,4,44,36,400,['n'],0,left,['9'],5,168,[-0.15188838],100,44,hard,plus,dotcolour,alfa,,,114,19,V,R,
621,117,33,14,4,36,44,566,['n'],1,right,['9'],5,173,[-0.07139439],100,44,hard,plus,dotcolour,alfa,,,114,19,V,R,
622,118,34,14,4,36,44,484,['n'],1,right,['9'],5,164,[-0.08224156],100,44,hard,plus,dotcolour,alfa,,,114,19,V,R,
623,119,35,14,4,53,27,451,['n'],0,left,['9'],5,196,[-0.0899789],100,53,easy,plus,dotcolour,alfa,,,114,19,V,R,
624,120,36,14,4,44,36,416,['c'],1,left,['9'],5,220,[0.07563111],100,44,hard,plus,dotcolour,alfa,,,114,19,V,R,
625,121,37,14,4,36,44,468,['n'],1,right,['9'],5,177,[-0.06006468],99,44,hard,plus,dotcolour,alfa,,,114,19,V,R,
626,122,38,14,4,36,44,350,['c'],0,right,['9'],5,165,[0.12291268],100,44,hard,plus,dotcolour,alfa,,,114,19,V,R,
627,123,39,14,4,44,36,317,['n'],0,left,['9'],5,171,[0.00524982],39,44,hard,plus,dotcolour,alfa,,,114,19,V,R,
628,124,40,14,4,47,33,468,['c'],1,left,['9'],5,171,[0.13694628],100,47,medium,plus,dotcolour,alfa,,,114,19,V,R,
629,125,41,14,4,33,47,433,['n'],1,right,['9'],5,157,[-0.08089075],100,47,medium,plus,dotcolour,alfa,,,114,19,V,R,
630,0,0,15,5,27,53,684,['c'],0,right,['9'],5,156,[0.03516455],69,53,easy,minus,dotcolour,alfa,,,114,19,V,R,
631,1,1,15,5,36,44,334,['n'],1,right,['9'],5,514,[-0.07588833],72,44,hard,minus,dotcolour,alfa,,,114,19,V,R,
632,2,2,15,5,27,53,518,['n'],1,right,['9'],5,209,[-0.15094533],95,53,easy,minus,dotcolour,alfa,,,114,19,V,R,
633,3,3,15,5,47,33,317,['n'],0,left,['9'],5,182,[-0.05121925],75,47,medium,minus,dotcolour,alfa,,,114,19,V,R,
634,4,4,15,5,27,53,367,['c'],0,right,['9'],5,353,[0.07527821],76,53,easy,minus,dotcolour,alfa,,,114,19,V,R,
635,5,5,15,5,53,27,701,['n'],0,left,['9'],5,184,[-0.03493529],68,53,easy,minus,dotcolour,alfa,,,114,19,V,R,
636,6,6,15,5,33,47,384,['n'],1,right,['9'],5,187,[-0.12041593],92,47,medium,minus,dotcolour,alfa,,,114,19,V,R,
637,7,7,15,5,36,44,333,['n'],1,right,['9'],5,200,[-0.06411473],78,44,hard,minus,dotcolour,alfa,,,114,19,V,R,
638,8,8,15,5,44,36,399,['c'],1,left,['9'],5,176,[0.08221815],85,44,hard,minus,dotcolour,alfa,,,114,19,V,R,
639,9,9,15,5,27,53,317,['n'],1,right,['9'],5,181,[-0.09775801],89,53,easy,minus,dotcolour,alfa,,,114,19,V,R,
640,10,10,15,5,36,44,334,['n'],1,right,['9'],5,170,[-0.04267338],72,44,hard,minus,dotcolour,alfa,,,114,19,V,R,
641,11,11,15,5,44,36,349,['c'],1,left,['9'],5,167,[0.08236504],86,44,hard,minus,dotcolour,alfa,,,114,19,V,R,
642,12,12,15,5,44,36,434,['n'],0,left,['9'],5,248,[-0.10127344],86,44,hard,minus,dotcolour,alfa,,,114,19,V,R,
643,13,13,15,5,47,33,384,['n'],0,left,['9'],5,169,[-0.09906753],90,47,medium,minus,dotcolour,alfa,,,114,19,V,R,
644,14,14,15,5,36,44,399,['n'],1,right,['9'],5,196,[-0.02680739],63,44,hard,minus,dotcolour,alfa,,,114,19,V,R,
645,15,15,15,5,33,47,451,['n'],1,right,['9'],5,203,[-0.00802433],54,47,medium,minus,dotcolour,alfa,,,114,19,V,R,
646,16,16,15,5,44,36,367,['n'],0,left,['9'],5,165,[-0.07014137],83,44,hard,minus,dotcolour,alfa,,,114,19,V,R,
647,17,17,15,5,36,44,333,['n'],1,right,['9'],5,242,[-0.09447732],85,44,hard,minus,dotcolour,alfa,,,114,19,V,R,
648,18,18,15,5,36,44,284,['n'],1,right,['9'],5,191,[-0.12283082],93,44,hard,minus,dotcolour,alfa,,,114,19,V,R,
649,19,19,15,5,44,36,368,['n'],0,left,['9'],5,225,[0.01789225],42,44,hard,minus,dotcolour,alfa,,,114,19,V,R,
650,20,20,15,5,36,44,382,['c'],0,right,['9'],5,97,[0.06738293],88,44,hard,minus,dotcolour,alfa,,,114,19,V,R,
651,21,21,15,5,53,27,349,['n'],0,left,['9'],5,177,[-0.1109084],91,53,easy,minus,dotcolour,alfa,,,114,19,V,R,
652,22,22,15,5,44,36,400,['c'],1,left,['9'],5,123,[0.13767965],97,44,hard,minus,dotcolour,alfa,,,114,19,V,R,
653,23,23,15,5,33,47,432,['n'],1,right,['9'],5,206,[-0.038691],68,47,medium,minus,dotcolour,alfa,,,114,19,V,R,
654,24,24,15,5,27,53,467,['c'],0,right,['9'],5,172,[0.03448134],68,53,easy,minus,dotcolour,alfa,,,114,19,V,R,
655,25,25,15,5,33,47,384,['n'],1,right,['9'],5,191,[-0.12259239],93,47,medium,minus,dotcolour,alfa,,,114,19,V,R,
656,26,26,15,5,33,47,384,['n'],1,right,['9'],5,185,[-0.0908337],87,47,medium,minus,dotcolour,alfa,,,114,19,V,R,
657,27,27,15,5,47,33,384,['n'],0,left,['9'],5,219,[-0.06191289],77,47,medium,minus,dotcolour,alfa,,,114,19,V,R,
658,28,28,15,5,47,33,450,['n'],0,left,['9'],5,186,[-0.04069604],70,47,medium,minus,dotcolour,alfa,,,114,19,V,R,
659,29,29,15,5,53,27,350,['n'],0,left,['9'],5,366,[-0.05913692],71,53,easy,minus,dotcolour,alfa,,,114,19,V,R,
660,30,30,15,5,47,33,350,['c'],1,left,['9'],5,227,[0.07682086],81,47,medium,minus,dotcolour,alfa,,,114,19,V,R,
661,31,31,15,5,53,27,501,['n'],0,left,['9'],5,295,[-0.02267873],59,53,easy,minus,dotcolour,alfa,,,114,19,V,R,
662,32,32,15,5,27,53,383,['c'],0,right,['9'],5,230,[0.04188947],69,53,easy,minus,dotcolour,alfa,,,114,19,V,R,
663,33,33,15,5,53,27,467,['n'],0,left,['9'],5,202,[-0.0495971],73,53,easy,minus,dotcolour,alfa,,,114,19,V,R,
664,34,34,15,5,53,27,433,['c'],1,left,['9'],5,202,[0.16341957],96,53,easy,minus,dotcolour,alfa,,,114,19,V,R,
665,35,35,15,5,33,47,516,['n'],1,right,['9'],5,263,[-0.07783376],80,47,medium,minus,dotcolour,alfa,,,114,19,V,R,
666,36,36,15,5,47,33,400,['n'],0,left,['9'],5,414,[-0.00963809],53,47,medium,minus,dotcolour,alfa,,,114,19,V,R,
667,37,37,15,5,53,27,349,['n'],0,left,['9'],5,168,[-0.03645943],69,53,easy,minus,dotcolour,alfa,,,114,19,V,R,
668,38,38,15,5,47,33,501,['c'],1,left,['9'],5,103,[0.03863796],75,47,medium,minus,dotcolour,alfa,,,114,19,V,R,
669,39,39,15,5,27,53,484,['n'],1,right,['9'],5,288,[-0.19959925],97,53,easy,minus,dotcolour,alfa,,,114,19,V,R,
670,40,40,15,5,33,47,452,['c'],0,right,['9'],5,108,[0.02638449],67,47,medium,minus,dotcolour,alfa,,,114,19,V,R,
671,41,41,15,5,44,36,385,['n'],0,left,['9'],5,233,[-0.06317287],76,44,hard,minus,dotcolour,alfa,,,114,19,V,R,
672,42,0,16,5,53,27,351,['n'],0,left,['9'],5,167,[-0.10166978],90,53,easy,minus,dotcolour,alfa,,,114,19,V,R,
673,43,1,16,5,44,36,300,['c'],1,left,['9'],5,142,[0.06273398],82,44,hard,minus,dotcolour,alfa,,,114,19,V,R,
674,44,2,16,5,36,44,416,['n'],1,right,['9'],5,177,[-0.04113065],71,44,hard,minus,dotcolour,alfa,,,114,19,V,R,
675,45,3,16,5,36,44,416,['c'],0,right,['9'],5,82,[0.08028957],93,44,hard,minus,dotcolour,alfa,,,114,19,V,R,
676,46,4,16,5,44,36,367,['n'],0,left,['9'],5,162,[-0.05372367],77,44,hard,minus,dotcolour,alfa,,,114,19,V,R,
677,47,5,16,5,27,53,466,['c'],0,right,['9'],5,154,[0.04321633],73,53,easy,minus,dotcolour,alfa,,,114,19,V,R,
678,48,6,16,5,33,47,316,['n'],1,right,['9'],5,264,[-0.04487897],69,47,medium,minus,dotcolour,alfa,,,114,19,V,R,
679,49,7,16,5,47,33,333,['n'],0,left,['9'],5,154,[0.02852061],34,47,medium,minus,dotcolour,alfa,,,114,19,V,R,
680,50,8,16,5,47,33,717,['c'],1,left,['9'],5,288,[0.13821244],91,47,medium,minus,dotcolour,alfa,,,114,19,V,R,
681,51,9,16,5,44,36,400,['n'],0,left,['9'],5,173,[-0.00805177],54,44,hard,minus,dotcolour,alfa,,,114,19,V,R,
682,52,10,16,5,53,27,350,['c'],1,left,['9'],5,154,[0.09090873],89,53,easy,minus,dotcolour,alfa,,,114,19,V,R,
683,53,11,16,5,33,47,334,['n'],1,right,['9'],5,191,[-0.08931861],86,47,medium,minus,dotcolour,alfa,,,114,19,V,R,
684,54,12,16,5,36,44,333,['n'],1,right,['9'],5,220,[-0.08212785],83,44,hard,minus,dotcolour,alfa,,,114,19,V,R,
685,55,13,16,5,36,44,350,['n'],1,right,['9'],5,182,[-0.13033141],94,44,hard,minus,dotcolour,alfa,,,114,19,V,R,
686,56,14,16,5,27,53,350,['n'],1,right,['9'],5,162,[-0.06130541],80,53,easy,minus,dotcolour,alfa,,,114,19,V,R,
687,57,15,16,5,44,36,283,['n'],0,left,['9'],5,170,[0.0113997],44,44,hard,minus,dotcolour,alfa,,,114,19,V,R,
688,58,16,16,5,53,27,318,['c'],1,left,['9'],5,120,[0.11401442],95,53,easy,minus,dotcolour,alfa,,,114,19,V,R,
689,59,17,16,5,53,27,334,['n'],0,left,['9'],5,175,[-0.040152],70,53,easy,minus,dotcolour,alfa,,,114,19,V,R,
690,60,18,16,5,36,44,534,['n'],1,right,['9'],5,140,[-0.07381528],86,44,hard,minus,dotcolour,alfa,,,114,19,V,R,
691,61,19,16,5,36,44,551,['n'],1,right,['9'],5,129,[-0.13151444],96,44,hard,minus,dotcolour,alfa,,,114,19,V,R,
692,62,20,16,5,47,33,334,['n'],0,left,['9'],5,167,[-0.02427485],63,47,medium,minus,dotcolour,alfa,,,114,19,V,R,
693,63,21,16,5,33,47,417,['n'],1,right,['9'],5,153,[-0.10878051],92,47,medium,minus,dotcolour,alfa,,,114,19,V,R,
694,64,22,16,5,47,33,333,['n'],0,left,['9'],5,224,[-0.05191219],73,47,medium,minus,dotcolour,alfa,,,114,19,V,R,
695,65,23,16,5,33,47,349,['n'],1,right,['9'],5,170,[-0.07165144],83,47,medium,minus,dotcolour,alfa,,,114,19,V,R,
696,66,24,16,5,53,27,190,['n'],0,left,['9'],5,261,[-0.05134994],71,53,easy,minus,dotcolour,alfa,,,114,19,V,R,
697,67,25,16,5,44,36,318,['n'],0,left,['9'],5,166,[-0.05428253],77,44,hard,minus,dotcolour,alfa,,,114,19,V,R,
698,68,26,16,5,44,36,368,['c'],1,left,['9'],5,139,[0.04654622],75,44,hard,minus,dotcolour,alfa,,,114,19,V,R,
699,69,27,16,5,47,33,350,['n'],0,left,['9'],5,192,[-0.06967552],81,47,medium,minus,dotcolour,alfa,,,114,19,V,R,
700,70,28,16,5,36,44,334,['c'],0,right,['9'],5,139,[0.10383418],92,44,hard,minus,dotcolour,alfa,,,114,19,V,R,
701,71,29,16,5,27,53,268,['n'],1,right,['9'],5,164,[-0.05955335],79,53,easy,minus,dotcolour,alfa,,,114,19,V,R,
702,72,30,16,5,47,33,334,['n'],0,left,['9'],5,218,[-0.03216366],65,47,medium,minus,dotcolour,alfa,,,114,19,V,R,
703,73,31,16,5,27,53,333,['n'],1,right,['9'],5,149,[-0.02496535],64,53,easy,minus,dotcolour,alfa,,,114,19,V,R,
704,74,32,16,5,27,53,335,['n'],1,right,['9'],5,211,[-0.10915734],89,53,easy,minus,dotcolour,alfa,,,114,19,V,R,
705,75,33,16,5,33,47,383,['n'],1,right,['9'],5,356,[-0.1143181],85,47,medium,minus,dotcolour,alfa,,,114,19,V,R,
706,76,34,16,5,27,53,185,['n'],1,right,['9'],5,232,[-0.10924583],89,53,easy,minus,dotcolour,alfa,,,114,19,V,R,
707,77,35,16,5,53,27,285,['n'],0,left,['9'],5,196,[-0.07147155],81,53,easy,minus,dotcolour,alfa,,,114,19,V,R,
708,78,36,16,5,27,53,383,['n'],1,right,['9'],5,198,[-0.01616078],58,53,easy,minus,dotcolour,alfa,,,114,19,V,R,
709,79,37,16,5,47,33,284,['n'],0,left,['9'],5,213,[-0.08495361],84,47,medium,minus,dotcolour,alfa,,,114,19,V,R,
710,80,38,16,5,33,47,318,['n'],1,right,['9'],5,248,[-0.13419431],92,47,medium,minus,dotcolour,alfa,,,114,19,V,R,
711,81,39,16,5,33,47,301,['n'],1,right,['9'],5,1123,[-0.23740743],88,47,medium,minus,dotcolour,alfa,,,114,19,V,R,
712,82,40,16,5,44,36,350,['n'],0,left,['9'],5,129,[-0.12978135],96,44,hard,minus,dotcolour,alfa,,,114,19,V,R,
713,83,41,16,5,53,27,284,['n'],0,left,['9'],5,178,[0.02476464],37,53,easy,minus,dotcolour,alfa,,,114,19,V,R,
714,84,0,17,5,36,44,468,['n'],1,right,['9'],5,179,[-0.02482617],63,44,hard,minus,dotcolour,alfa,,,114,19,V,R,
715,85,1,17,5,47,33,127,['n'],0,left,['9'],5,86,[-0.03387209],74,47,medium,minus,dotcolour,alfa,,,114,19,V,R,
716,86,2,17,5,33,47,45,['n'],1,right,['9'],5,85,[-0.0801146],92,47,medium,minus,dotcolour,alfa,,,114,19,V,R,
717,87,3,17,5,44,36,284,['n'],0,left,['9'],5,174,[0.00282952],48,44,hard,minus,dotcolour,alfa,,,114,19,V,R,
718,88,4,17,5,33,47,366,['c'],0,right,['9'],5,105,[0.10453368],95,47,medium,minus,dotcolour,alfa,,,114,19,V,R,
719,89,5,17,5,53,27,316,['n'],0,left,['9'],5,217,[-0.08646132],84,53,easy,minus,dotcolour,alfa,,,114,19,V,R,
720,90,6,17,5,47,33,384,['n'],0,left,['9'],5,162,[-0.02454367],63,47,medium,minus,dotcolour,alfa,,,114,19,V,R,
721,91,7,17,5,53,27,317,['c'],1,left,['9'],5,152,[0.13832151],96,53,easy,minus,dotcolour,alfa,,,114,19,V,R,
722,92,8,17,5,27,53,583,['n'],1,right,['9'],5,173,[-0.07522959],84,53,easy,minus,dotcolour,alfa,,,114,19,V,R,
723,93,9,17,5,44,36,418,['n'],0,left,['9'],5,190,[-0.08632725],86,44,hard,minus,dotcolour,alfa,,,114,19,V,R,
724,94,10,17,5,44,36,284,['n'],0,left,['9'],5,188,[-0.01840029],59,44,hard,minus,dotcolour,alfa,,,114,19,V,R,
725,95,11,17,5,53,27,301,['n'],0,left,['9'],5,161,[0.02664533],35,53,easy,minus,dotcolour,alfa,,,114,19,V,R,
726,96,12,17,5,47,33,300,['c'],1,left,['9'],5,144,[0.01273942],57,47,medium,minus,dotcolour,alfa,,,114,19,V,R,
727,97,13,17,5,33,47,368,['n'],1,right,['9'],5,165,[-0.05478311],77,47,medium,minus,dotcolour,alfa,,,114,19,V,R,
728,98,14,17,5,44,36,366,['n'],0,left,['9'],5,193,[-0.05891604],77,44,hard,minus,dotcolour,alfa,,,114,19,V,R,
729,99,15,17,5,27,53,402,['n'],1,right,['9'],5,170,[-0.09839197],90,53,easy,minus,dotcolour,alfa,,,114,19,V,R,
730,100,16,17,5,44,36,350,['n'],0,left,['9'],5,223,[-0.00494294],52,44,hard,minus,dotcolour,alfa,,,114,19,V,R,
731,101,17,17,5,36,44,285,['c'],0,right,['9'],5,99,[0.09205951],93,44,hard,minus,dotcolour,alfa,,,114,19,V,R,
732,102,18,17,5,44,36,334,['n'],0,left,['9'],5,339,[0.0153531],44,44,hard,minus,dotcolour,alfa,,,114,19,V,R,
733,103,19,17,5,53,27,300,['c'],1,left,['9'],5,123,[0.08627954],90,53,easy,minus,dotcolour,alfa,,,114,19,V,R,
734,104,20,17,5,27,53,318,['n'],1,right,['9'],5,154,[-0.13421963],96,53,easy,minus,dotcolour,alfa,,,114,19,V,R,
735,105,21,17,5,53,27,350,['n'],0,left,['9'],5,199,[-0.06870406],80,53,easy,minus,dotcolour,alfa,,,114,19,V,R,
736,106,22,17,5,36,44,284,['n'],1,right,['9'],5,221,[-0.16895716],96,44,hard,minus,dotcolour,alfa,,,114,19,V,R,
737,107,23,17,5,47,33,384,['n'],0,left,['9'],5,158,[-0.04718086],74,47,medium,minus,dotcolour,alfa,,,114,19,V,R,
738,108,24,17,5,33,47,317,['n'],1,right,['9'],5,180,[-0.05573976],77,47,medium,minus,dotcolour,alfa,,,114,19,V,R,
739,109,25,17,5,36,44,366,['n'],1,right,['9'],5,191,[-0.08628653],86,44,hard,minus,dotcolour,alfa,,,114,19,V,R,
740,110,26,17,5,53,27,535,['n'],0,left,['9'],5,227,[-0.09774099],86,53,easy,minus,dotcolour,alfa,,,114,19,V,R,
741,111,27,17,5,47,33,301,['n'],0,left,['9'],5,184,[-0.0356109],68,47,medium,minus,dotcolour,alfa,,,114,19,V,R,
742,112,28,17,5,33,47,351,['n'],1,right,['9'],5,228,[-0.10325926],88,47,medium,minus,dotcolour,alfa,,,114,19,V,R,
743,113,29,17,5,36,44,400,['n'],1,right,['9'],5,172,[-0.09922969],90,44,hard,minus,dotcolour,alfa,,,114,19,V,R,
744,114,30,17,5,33,47,332,['n'],1,right,['9'],5,160,[-0.10995906],92,47,medium,minus,dotcolour,alfa,,,114,19,V,R,
745,115,31,17,5,44,36,334,['n'],0,left,['9'],5,165,[-0.07283419],83,44,hard,minus,dotcolour,alfa,,,114,19,V,R,
746,116,32,17,5,47,33,66,['n'],0,left,['9'],5,233,[-0.07924276],81,47,medium,minus,dotcolour,alfa,,,114,19,V,R,
747,117,33,17,5,27,53,91,['n'],1,right,['9'],5,258,[-0.04468257],69,53,easy,minus,dotcolour,alfa,,,114,19,V,R,
748,118,34,17,5,47,33,334,['n'],0,left,['9'],5,170,[-0.05737517],78,47,medium,minus,dotcolour,alfa,,,114,19,V,R,
749,119,35,17,5,27,53,318,['n'],1,right,['9'],5,168,[-0.15864721],97,53,easy,minus,dotcolour,alfa,,,114,19,V,R,
750,120,36,17,5,33,47,350,['n'],1,right,['9'],5,189,[-0.07608386],83,47,medium,minus,dotcolour,alfa,,,114,19,V,R,
751,121,37,17,5,53,27,350,['n'],0,left,['9'],5,183,[-0.10477428],90,53,easy,minus,dotcolour,alfa,,,114,19,V,R,
752,122,38,17,5,36,44,600,['c'],0,right,['9'],5,193,[0.0091484],55,44,hard,minus,dotcolour,alfa,,,114,19,V,R,
753,123,39,17,5,27,53,384,['n'],1,right,['9'],5,172,[-0.08463034],86,53,easy,minus,dotcolour,alfa,,,114,19,V,R,
754,124,40,17,5,36,44,350,['n'],1,right,['9'],5,176,[-0.02077599],61,44,hard,minus,dotcolour,alfa,,,114,19,V,R,
755,125,41,17,5,27,53,351,['n'],1,right,['9'],5,195,[-0.11360739],91,53,easy,minus,dotcolour,alfa,,,114,19,V,R,
,,,,,,,,,,,,,,,,,,,,,1,puntjes die afgedekt worden door de andere kleur,114,19,V,R,
,,,,,,,,,,,,,,,,,,,,,2,['g'],114,19,V,R,
,,,,,,,,,,,,,,,,,,,,,3,['f'],114,19,V,R,
,,,,,,,,,,,,,,,,,,,,,5,[],114,19,V,R,
