trial,withinphasetrial,withinblocktrial,block,phase,dotsLeft,dotsRight,rt,resp,cor,cresp,conf_press,cj,RTconf,ev,fb,diff,difflevel,condition,task,manip,questionID,questionResp,sub,age,gender,handedness,
0,0,0,0,0,47,33,884,['c'],1,left,['8'],4,1672,[0.09643129],66,47,medium,minus,dotcolour,alfa,,,99,18,V,R,
1,1,1,0,0,53,27,1117,['c'],1,left,['8'],4,488,[0.07502635],72,53,easy,minus,dotcolour,alfa,,,99,18,V,R,
2,2,2,0,0,27,53,1299,['n'],1,right,['3'],3,730,[-0.10647094],75,53,easy,minus,dotcolour,alfa,,,99,18,V,R,
3,3,3,0,0,27,53,933,['n'],1,right,['3'],3,553,[-0.2604142],96,53,easy,minus,dotcolour,alfa,,,99,18,V,R,
4,4,4,0,0,47,33,1484,['n'],0,left,['3'],3,1215,[0.30175833],8,47,medium,minus,dotcolour,alfa,,,99,18,V,R,
5,5,5,0,0,27,53,884,['n'],1,right,['8'],4,716,[-0.22887054],92,53,easy,minus,dotcolour,alfa,,,99,18,V,R,
6,6,6,0,0,44,36,1017,['c'],1,left,['8'],4,544,[0.10943692],79,44,hard,minus,dotcolour,alfa,,,99,18,V,R,
7,7,7,0,0,53,27,667,['c'],1,left,['8'],4,416,[0.01237727],54,53,easy,minus,dotcolour,alfa,,,99,18,V,R,
8,8,8,0,0,33,47,684,['n'],1,right,['8'],4,262,[-0.18353857],96,47,medium,minus,dotcolour,alfa,,,99,18,V,R,
9,9,9,0,0,53,27,1050,['c'],1,left,['2'],2,827,[0.28109839],94,53,easy,minus,dotcolour,alfa,,,99,18,V,R,
10,10,10,0,0,33,47,683,['n'],1,right,['8'],4,447,[-0.16393187],90,47,medium,minus,dotcolour,alfa,,,99,18,V,R,
11,11,11,0,0,44,36,717,['c'],1,left,['8'],4,426,[0.17513589],92,44,hard,minus,dotcolour,alfa,,,99,18,V,R,
12,12,12,0,0,33,47,1050,['n'],1,right,['2'],2,488,[-0.16328029],89,47,medium,minus,dotcolour,alfa,,,99,18,V,R,
13,13,13,0,0,47,33,800,['c'],1,left,['2'],2,341,[0.14006316],90,47,medium,minus,dotcolour,alfa,,,99,18,V,R,
14,14,14,0,0,33,47,634,['n'],1,right,['8'],4,367,[-0.0126905],55,47,medium,minus,dotcolour,alfa,,,99,18,V,R,
15,15,15,0,0,36,44,817,['n'],1,right,['3'],3,441,[-0.18338303],92,44,hard,minus,dotcolour,alfa,,,99,18,V,R,
16,16,16,0,0,53,27,984,['c'],1,left,['3'],3,377,[0.07184216],74,53,easy,minus,dotcolour,alfa,,,99,18,V,R,
17,17,17,0,0,36,44,850,['n'],1,right,['2'],2,577,[0.05623136],34,44,hard,minus,dotcolour,alfa,,,99,18,V,R,
18,18,18,0,0,47,33,750,['n'],0,left,['1'],1,813,[0.04477024],39,47,medium,minus,dotcolour,alfa,,,99,18,V,R,
19,19,19,0,0,36,44,933,['c'],0,right,['2'],2,584,[0.00659844],52,44,hard,minus,dotcolour,alfa,,,99,18,V,R,
20,20,20,0,0,44,36,1217,['c'],1,left,['8'],4,290,[0.12540049],89,44,hard,minus,dotcolour,alfa,,,99,18,V,R,
21,21,21,0,0,44,36,1234,['c'],1,left,['3'],3,430,[0.22910242],96,44,hard,minus,dotcolour,alfa,,,99,18,V,R,
22,22,22,0,0,33,47,650,['n'],1,right,['3'],3,397,[-0.24025557],97,47,medium,minus,dotcolour,alfa,,,99,18,V,R,
23,23,23,0,0,47,33,683,['n'],0,left,['3'],3,362,[0.03821865],36,47,medium,minus,dotcolour,alfa,,,99,18,V,R,
24,24,24,0,0,47,33,1199,['c'],1,left,['8'],4,309,[0.14675221],91,47,medium,minus,dotcolour,alfa,,,99,18,V,R,
25,25,25,0,0,53,27,816,['c'],1,left,['8'],4,289,[0.16737913],94,53,easy,minus,dotcolour,alfa,,,99,18,V,R,
26,26,26,0,0,27,53,767,['n'],1,right,['8'],4,255,[-0.09034373],83,53,easy,minus,dotcolour,alfa,,,99,18,V,R,
27,27,27,0,0,53,27,700,['c'],1,left,['8'],4,363,[0.10312257],82,53,easy,minus,dotcolour,alfa,,,99,18,V,R,
28,28,28,0,0,36,44,1400,['n'],1,right,['8'],4,837,[-0.16739678],84,44,hard,minus,dotcolour,alfa,,,99,18,V,R,
29,29,29,0,0,44,36,1301,['c'],1,left,['2'],2,512,[0.08743034],75,44,hard,minus,dotcolour,alfa,,,99,18,V,R,
30,30,30,0,0,47,33,883,['c'],1,left,['8'],4,418,[0.15444885],90,47,medium,minus,dotcolour,alfa,,,99,18,V,R,
31,31,31,0,0,27,53,834,['n'],1,right,['9'],5,313,[-0.06431469],74,53,easy,minus,dotcolour,alfa,,,99,18,V,R,
32,32,32,0,0,36,44,983,['n'],1,right,['8'],4,495,[-0.1803559],91,44,hard,minus,dotcolour,alfa,,,99,18,V,R,
33,33,33,0,0,36,44,500,['n'],1,right,['8'],4,232,[-0.04325816],69,44,hard,minus,dotcolour,alfa,,,99,18,V,R,
34,34,34,0,0,27,53,583,['n'],1,right,['8'],4,361,[-0.06875051],74,53,easy,minus,dotcolour,alfa,,,99,18,V,R,
35,35,35,0,0,44,36,667,['c'],1,left,['8'],4,1217,[0.27447765],90,44,hard,minus,dotcolour,alfa,,,99,18,V,R,
36,36,36,0,0,44,36,850,['n'],0,left,['2'],2,783,[-0.12564175],78,44,hard,minus,dotcolour,alfa,,,99,18,V,R,
37,37,37,0,0,27,53,667,['n'],1,right,['8'],4,239,[-0.03975304],68,53,easy,minus,dotcolour,alfa,,,99,18,V,R,
38,38,38,0,0,33,47,866,['n'],1,right,['8'],4,211,[-0.08812481],85,47,medium,minus,dotcolour,alfa,,,99,18,V,R,
39,39,39,0,0,36,44,667,['n'],1,right,['8'],4,161,[-0.04115592],72,44,hard,minus,dotcolour,alfa,,,99,18,V,R,
40,40,40,0,0,53,27,1166,['n'],0,left,['2'],2,597,[0.0915438],26,53,easy,minus,dotcolour,alfa,,,99,18,V,R,
41,41,41,0,0,33,47,850,['n'],1,right,['8'],4,293,[-0.11692457],87,47,medium,minus,dotcolour,alfa,,,99,18,V,R,
42,42,0,1,0,27,53,585,['n'],1,right,['8'],4,346,[-0.19881965],95,53,easy,minus,dotcolour,alfa,,,99,18,V,R,
43,43,1,1,0,44,36,817,['n'],0,left,['2'],2,452,[-0.09045439],77,44,hard,minus,dotcolour,alfa,,,99,18,V,R,
44,44,2,1,0,33,47,650,['n'],1,right,['8'],4,186,[-0.09531045],88,47,medium,minus,dotcolour,alfa,,,99,18,V,R,
45,45,3,1,0,53,27,750,['c'],1,left,['8'],4,166,[0.1281889],94,53,easy,minus,dotcolour,alfa,,,99,18,V,R,
46,46,4,1,0,33,47,850,['n'],1,right,['8'],4,215,[-0.08512306],84,47,medium,minus,dotcolour,alfa,,,99,18,V,R,
47,47,5,1,0,33,47,550,['n'],1,right,['8'],4,137,[-0.10712851],93,47,medium,minus,dotcolour,alfa,,,99,18,V,R,
48,48,6,1,0,33,47,533,['n'],1,right,['8'],4,104,[-0.03123874],71,47,medium,minus,dotcolour,alfa,,,99,18,V,R,
49,49,7,1,0,27,53,584,['n'],1,right,['8'],4,95,[-0.09274763],94,53,easy,minus,dotcolour,alfa,,,99,18,V,R,
50,50,8,1,0,53,27,1050,['c'],1,left,['9'],5,234,[0.09549947],86,53,easy,minus,dotcolour,alfa,,,99,18,V,R,
51,51,9,1,0,47,33,1000,['c'],1,left,['9'],5,82,[0.05380294],84,47,medium,minus,dotcolour,alfa,,,99,18,V,R,
52,52,10,1,0,53,27,650,['c'],1,left,['9'],5,126,[0.06340909],83,53,easy,minus,dotcolour,alfa,,,99,18,V,R,
53,53,11,1,0,47,33,1433,['n'],0,left,['8'],4,88,[-0.00540223],54,47,medium,minus,dotcolour,alfa,,,99,18,V,R,
54,54,12,1,0,36,44,884,['n'],1,right,['8'],4,123,[-0.05209859],79,44,hard,minus,dotcolour,alfa,,,99,18,V,R,
55,55,13,1,0,36,44,1368,['c'],0,right,['8'],4,130,[0.08333497],89,44,hard,minus,dotcolour,alfa,,,99,18,V,R,
56,56,14,1,0,47,33,817,['c'],1,left,['8'],4,92,[0.05093297],82,47,medium,minus,dotcolour,alfa,,,99,18,V,R,
57,57,15,1,0,47,33,1200,['n'],0,left,['8'],4,161,[-0.01220164],57,47,medium,minus,dotcolour,alfa,,,99,18,V,R,
58,58,16,1,0,44,36,1350,['c'],1,left,['8'],4,270,[0.07825653],80,44,hard,minus,dotcolour,alfa,,,99,18,V,R,
59,59,17,1,0,44,36,916,['c'],1,left,['8'],4,104,[0.09886061],94,44,hard,minus,dotcolour,alfa,,,99,18,V,R,
60,60,18,1,0,27,53,634,['n'],1,right,['8'],4,100,[-0.08828298],93,53,easy,minus,dotcolour,alfa,,,99,18,V,R,
61,61,19,1,0,47,33,633,['c'],1,left,['8'],4,104,[-0.01963171],37,47,medium,minus,dotcolour,alfa,,,99,18,V,R,
62,62,20,1,0,27,53,784,['n'],1,right,['8'],4,182,[-0.14334012],95,53,easy,minus,dotcolour,alfa,,,99,18,V,R,
63,63,21,1,0,47,33,1234,['c'],1,left,['2'],2,199,[0.11898118],92,47,medium,minus,dotcolour,alfa,,,99,18,V,R,
64,64,22,1,0,36,44,1133,['n'],1,right,['3'],3,971,[-0.14943253],80,44,hard,minus,dotcolour,alfa,,,99,18,V,R,
65,65,23,1,0,27,53,834,['n'],1,right,['9'],5,404,[-0.13840831],88,53,easy,minus,dotcolour,alfa,,,99,18,V,R,
66,66,24,1,0,53,27,667,['c'],1,left,['9'],5,330,[0.00147534],51,53,easy,minus,dotcolour,alfa,,,99,18,V,R,
67,67,25,1,0,33,47,801,['n'],1,right,['8'],4,150,[-0.0406248],72,47,medium,minus,dotcolour,alfa,,,99,18,V,R,
68,68,26,1,0,36,44,1150,['c'],0,right,['3'],3,172,[0.01733243],59,44,hard,minus,dotcolour,alfa,,,99,18,V,R,
69,69,27,1,0,36,44,2084,['n'],1,right,['2'],2,291,[-0.09252835],82,44,hard,minus,dotcolour,alfa,,,99,18,V,R,
70,70,28,1,0,53,27,2332,['c'],1,left,['1'],1,523,[-0.052271],34,53,easy,minus,dotcolour,alfa,,,99,18,V,R,
71,71,29,1,0,36,44,1084,['n'],1,right,['3'],3,700,[-0.05143819],63,44,hard,minus,dotcolour,alfa,,,99,18,V,R,
72,72,30,1,0,44,36,985,['c'],1,left,['8'],4,1042,[0.11567128],73,44,hard,minus,dotcolour,alfa,,,99,18,V,R,
73,73,31,1,0,27,53,667,['n'],1,right,['9'],5,287,[-0.20499613],97,53,easy,minus,dotcolour,alfa,,,99,18,V,R,
74,74,32,1,0,33,47,750,['n'],1,right,['9'],5,199,[-0.09164905],86,47,medium,minus,dotcolour,alfa,,,99,18,V,R,
75,75,33,1,0,33,47,450,['n'],1,right,['9'],5,150,[-0.11255017],93,47,medium,minus,dotcolour,alfa,,,99,18,V,R,
76,76,34,1,0,44,36,500,['n'],0,left,['1'],1,910,[-0.12304652],76,44,hard,minus,dotcolour,alfa,,,99,18,V,R,
77,77,35,1,0,53,27,1033,['c'],1,left,['9'],5,225,[0.18670265],97,53,easy,minus,dotcolour,alfa,,,99,18,V,R,
78,78,36,1,0,47,33,950,['c'],1,left,['9'],5,107,[0.0613223],84,47,medium,minus,dotcolour,alfa,,,99,18,V,R,
79,79,37,1,0,27,53,817,['n'],1,right,['9'],5,199,[-0.06616013],79,53,easy,minus,dotcolour,alfa,,,99,18,V,R,
80,80,38,1,0,36,44,617,['n'],1,right,['9'],5,144,[-0.13643502],96,44,hard,minus,dotcolour,alfa,,,99,18,V,R,
81,81,39,1,0,44,36,1000,['c'],1,left,['8'],4,123,[0.11360811],95,44,hard,minus,dotcolour,alfa,,,99,18,V,R,
82,82,40,1,0,44,36,767,['c'],1,left,['8'],4,89,[0.0171394],63,44,hard,minus,dotcolour,alfa,,,99,18,V,R,
83,83,41,1,0,53,27,750,['c'],1,left,['8'],4,129,[0.07525611],87,53,easy,minus,dotcolour,alfa,,,99,18,V,R,
84,84,0,2,0,27,53,801,['n'],1,right,['9'],5,141,[-0.07317616],85,53,easy,minus,dotcolour,alfa,,,99,18,V,R,
85,85,1,2,0,47,33,650,['c'],1,left,['8'],4,118,[0.09694214],93,47,medium,minus,dotcolour,alfa,,,99,18,V,R,
86,86,2,2,0,33,47,1066,['n'],1,right,['8'],4,113,[-0.09475784],93,47,medium,minus,dotcolour,alfa,,,99,18,V,R,
87,87,3,2,0,44,36,734,['c'],1,left,['8'],4,96,[0.07280018],89,44,hard,minus,dotcolour,alfa,,,99,18,V,R,
88,88,4,2,0,36,44,833,['c'],0,right,['8'],4,115,[0.10726377],95,44,hard,minus,dotcolour,alfa,,,99,18,V,R,
89,89,5,2,0,44,36,2267,['c'],1,left,['8'],4,166,[0.03498383],68,44,hard,minus,dotcolour,alfa,,,99,18,V,R,
90,90,6,2,0,33,47,867,['n'],1,right,['8'],4,46,[-0.07417662],96,47,medium,minus,dotcolour,alfa,,,99,18,V,R,
91,91,7,2,0,36,44,750,['n'],1,right,['8'],4,95,[-0.12145933],97,44,hard,minus,dotcolour,alfa,,,99,18,V,R,
92,92,8,2,0,53,27,734,['c'],1,left,['8'],4,151,[0.12754843],95,53,easy,minus,dotcolour,alfa,,,99,18,V,R,
93,93,9,2,0,53,27,683,['c'],1,left,['8'],4,247,[0.15070889],94,53,easy,minus,dotcolour,alfa,,,99,18,V,R,
94,94,10,2,0,47,33,883,['c'],1,left,['8'],4,99,[0.08350372],92,47,medium,minus,dotcolour,alfa,,,99,18,V,R,
95,95,11,2,0,47,33,632,['c'],1,left,['8'],4,88,[0.12644319],98,47,medium,minus,dotcolour,alfa,,,99,18,V,R,
96,96,12,2,0,33,47,866,['n'],1,right,['8'],4,67,[-0.0697268],92,47,medium,minus,dotcolour,alfa,,,99,18,V,R,
97,97,13,2,0,44,36,666,['c'],1,left,['8'],4,79,[0.07074807],91,44,hard,minus,dotcolour,alfa,,,99,18,V,R,
98,98,14,2,0,47,33,950,['c'],1,left,['8'],4,1111,[0.209783],86,47,medium,minus,dotcolour,alfa,,,99,18,V,R,
99,99,15,2,0,33,47,867,['n'],1,right,['8'],4,113,[-0.1020348],94,47,medium,minus,dotcolour,alfa,,,99,18,V,R,
100,100,16,2,0,53,27,601,['c'],1,left,['8'],4,85,[0.10119567],96,53,easy,minus,dotcolour,alfa,,,99,18,V,R,
101,101,17,2,0,27,53,750,['n'],1,right,['8'],4,70,[-0.08917732],95,53,easy,minus,dotcolour,alfa,,,99,18,V,R,
102,102,18,2,0,44,36,766,['c'],1,left,['8'],4,134,[0.12772656],96,44,hard,minus,dotcolour,alfa,,,99,18,V,R,
103,103,19,2,0,33,47,650,['n'],1,right,['9'],5,119,[-0.09670506],93,47,medium,minus,dotcolour,alfa,,,99,18,V,R,
104,104,20,2,0,33,47,499,['n'],1,right,['9'],5,129,[-0.1189386],95,47,medium,minus,dotcolour,alfa,,,99,18,V,R,
105,105,21,2,0,44,36,684,['c'],1,left,['8'],4,89,[0.05010024],82,44,hard,minus,dotcolour,alfa,,,99,18,V,R,
106,106,22,2,0,27,53,484,['n'],1,right,['9'],5,131,[-0.10623],93,53,easy,minus,dotcolour,alfa,,,99,18,V,R,
107,107,23,2,0,36,44,1667,['n'],1,right,['8'],4,453,[-0.19899752],93,44,hard,minus,dotcolour,alfa,,,99,18,V,R,
108,108,24,2,0,27,53,616,['n'],1,right,['9'],5,131,[-0.13147969],96,53,easy,minus,dotcolour,alfa,,,99,18,V,R,
109,109,25,2,0,47,33,950,['c'],1,left,['8'],4,97,[0.05469078],83,47,medium,minus,dotcolour,alfa,,,99,18,V,R,
110,110,26,2,0,33,47,784,['n'],1,right,['8'],4,104,[-0.05716833],83,47,medium,minus,dotcolour,alfa,,,99,18,V,R,
111,111,27,2,0,47,33,1000,['c'],1,left,['3'],3,189,[0.07538692],83,47,medium,minus,dotcolour,alfa,,,99,18,V,R,
112,112,28,2,0,53,27,750,['c'],1,left,['8'],4,89,[0.0176664],63,53,easy,minus,dotcolour,alfa,,,99,18,V,R,
113,113,29,2,0,36,44,600,['n'],1,right,['8'],4,87,[-0.04082545],78,44,hard,minus,dotcolour,alfa,,,99,18,V,R,
114,114,30,2,0,27,53,684,['n'],1,right,['9'],5,178,[-0.06238237],79,53,easy,minus,dotcolour,alfa,,,99,18,V,R,
115,115,31,2,0,36,44,616,['n'],1,right,['9'],5,147,[-0.06981954],84,44,hard,minus,dotcolour,alfa,,,99,18,V,R,
116,116,32,2,0,36,44,567,['n'],1,right,['8'],4,128,[-0.08728971],90,44,hard,minus,dotcolour,alfa,,,99,18,V,R,
117,117,33,2,0,44,36,1266,['c'],1,left,['2'],2,145,[0.03432413],69,44,hard,minus,dotcolour,alfa,,,99,18,V,R,
118,118,34,2,0,53,27,733,['c'],1,left,['2'],2,168,[0.08859636],87,53,easy,minus,dotcolour,alfa,,,99,18,V,R,
119,119,35,2,0,47,33,1117,['c'],1,left,['2'],2,693,[0.1587799],85,47,medium,minus,dotcolour,alfa,,,99,18,V,R,
120,120,36,2,0,27,53,867,['n'],1,right,['8'],4,80,[-0.0925616],95,53,easy,minus,dotcolour,alfa,,,99,18,V,R,
121,121,37,2,0,36,44,816,['n'],1,right,['9'],5,590,[-0.03735047],61,44,hard,minus,dotcolour,alfa,,,99,18,V,R,
122,122,38,2,0,44,36,1168,['n'],0,left,['8'],4,120,[-0.10390289],94,44,hard,minus,dotcolour,alfa,,,99,18,V,R,
123,123,39,2,0,53,27,700,['c'],1,left,['8'],4,80,[0.066139],89,53,easy,minus,dotcolour,alfa,,,99,18,V,R,
124,124,40,2,0,53,27,817,['c'],1,left,['8'],4,86,[0.08956577],94,53,easy,minus,dotcolour,alfa,,,99,18,V,R,
125,125,41,2,0,27,53,650,['n'],1,right,['8'],4,82,[-0.06620042],89,53,easy,minus,dotcolour,alfa,,,99,18,V,R,
126,0,0,3,1,47,33,1051,['c'],1,left,['8'],4,107,[0.10739893],100,47,medium,plus,dotcolour,alfa,,,99,18,V,R,
127,1,1,3,1,44,36,1350,['n'],0,left,['2'],2,161,[-0.03569594],96,44,hard,plus,dotcolour,alfa,,,99,18,V,R,
128,2,2,3,1,47,33,1000,['c'],1,left,['8'],4,68,[0.04918148],100,47,medium,plus,dotcolour,alfa,,,99,18,V,R,
129,3,3,3,1,44,36,1067,['c'],1,left,['8'],4,72,[0.0808458],100,44,hard,plus,dotcolour,alfa,,,99,18,V,R,
130,4,4,3,1,36,44,783,['n'],1,right,['8'],4,95,[-0.10011904],100,44,hard,plus,dotcolour,alfa,,,99,18,V,R,
131,5,5,3,1,33,47,817,['c'],0,right,['8'],4,140,[0.01084447],74,47,medium,plus,dotcolour,alfa,,,99,18,V,R,
132,6,6,3,1,53,27,933,['c'],1,left,['9'],5,90,[0.09547284],100,53,easy,plus,dotcolour,alfa,,,99,18,V,R,
133,7,7,3,1,33,47,767,['n'],1,right,['8'],4,138,[-0.05449877],99,47,medium,plus,dotcolour,alfa,,,99,18,V,R,
134,8,8,3,1,53,27,716,['n'],0,left,['9'],5,224,[-0.02923457],90,53,easy,plus,dotcolour,alfa,,,99,18,V,R,
135,9,9,3,1,44,36,1600,['n'],0,left,['3'],3,585,[-0.08878589],98,44,hard,plus,dotcolour,alfa,,,99,18,V,R,
136,10,10,3,1,44,36,1400,['c'],1,left,['8'],4,195,[0.05558325],99,44,hard,plus,dotcolour,alfa,,,99,18,V,R,
137,11,11,3,1,27,53,617,['n'],1,right,['8'],4,179,[-0.11679248],100,53,easy,plus,dotcolour,alfa,,,99,18,V,R,
138,12,12,3,1,27,53,600,['n'],1,right,['9'],5,133,[-0.12303577],100,53,easy,plus,dotcolour,alfa,,,99,18,V,R,
139,13,13,3,1,53,27,633,['c'],1,left,['8'],4,136,[0.14279037],100,53,easy,plus,dotcolour,alfa,,,99,18,V,R,
140,14,14,3,1,33,47,1400,['n'],1,right,['9'],5,156,[-0.14394525],100,47,medium,plus,dotcolour,alfa,,,99,18,V,R,
141,15,15,3,1,53,27,600,['c'],1,left,['8'],4,119,[0.086239],100,53,easy,plus,dotcolour,alfa,,,99,18,V,R,
142,16,16,3,1,33,47,534,['n'],1,right,['9'],5,126,[-0.08967867],100,47,medium,plus,dotcolour,alfa,,,99,18,V,R,
143,17,17,3,1,53,27,851,['c'],1,left,['9'],5,88,[0.1057671],100,53,easy,plus,dotcolour,alfa,,,99,18,V,R,
144,18,18,3,1,36,44,750,['n'],1,right,['9'],5,137,[-0.14468293],100,44,hard,plus,dotcolour,alfa,,,99,18,V,R,
145,19,19,3,1,47,33,967,['c'],1,left,['8'],4,126,[0.09081605],100,47,medium,plus,dotcolour,alfa,,,99,18,V,R,
146,20,20,3,1,27,53,683,['n'],1,right,['9'],5,159,[-0.13131208],100,53,easy,plus,dotcolour,alfa,,,99,18,V,R,
147,21,21,3,1,36,44,634,['n'],1,right,['9'],5,183,[-0.08745503],100,44,hard,plus,dotcolour,alfa,,,99,18,V,R,
148,22,22,3,1,27,53,667,['n'],1,right,['9'],5,127,[-0.05393902],100,53,easy,plus,dotcolour,alfa,,,99,18,V,R,
149,23,23,3,1,27,53,533,['n'],1,right,['9'],5,158,[-0.06884725],100,53,easy,plus,dotcolour,alfa,,,99,18,V,R,
150,24,24,3,1,33,47,467,['n'],1,right,['9'],5,150,[-0.13647793],100,47,medium,plus,dotcolour,alfa,,,99,18,V,R,
151,25,25,3,1,53,27,616,['c'],1,left,['9'],5,144,[0.10964532],100,53,easy,plus,dotcolour,alfa,,,99,18,V,R,
152,26,26,3,1,44,36,833,['c'],1,left,['8'],4,418,[0.04349279],92,44,hard,plus,dotcolour,alfa,,,99,18,V,R,
153,27,27,3,1,27,53,700,['n'],1,right,['9'],5,127,[-0.12737192],100,53,easy,plus,dotcolour,alfa,,,99,18,V,R,
154,28,28,3,1,33,47,567,['n'],1,right,['9'],5,157,[-0.14754834],100,47,medium,plus,dotcolour,alfa,,,99,18,V,R,
155,29,29,3,1,47,33,634,['c'],1,left,['9'],5,110,[0.06629514],100,47,medium,plus,dotcolour,alfa,,,99,18,V,R,
156,30,30,3,1,33,47,2100,['n'],1,right,['9'],5,190,[-0.05427403],99,47,medium,plus,dotcolour,alfa,,,99,18,V,R,
157,31,31,3,1,27,53,549,['n'],1,right,['9'],5,113,[-0.11004517],100,53,easy,plus,dotcolour,alfa,,,99,18,V,R,
158,32,32,3,1,47,33,1283,['c'],1,left,['8'],4,203,[0.18889636],100,47,medium,plus,dotcolour,alfa,,,99,18,V,R,
159,33,33,3,1,36,44,1417,['n'],1,right,['8'],4,84,[-0.10631954],100,44,hard,plus,dotcolour,alfa,,,99,18,V,R,
160,34,34,3,1,44,36,1100,['c'],1,left,['8'],4,78,[0.09142462],100,44,hard,plus,dotcolour,alfa,,,99,18,V,R,
161,35,35,3,1,44,36,551,['n'],0,left,['2'],2,719,[-0.05939382],93,44,hard,plus,dotcolour,alfa,,,99,18,V,R,
162,36,36,3,1,36,44,601,['n'],1,right,['8'],4,99,[-0.07433037],100,44,hard,plus,dotcolour,alfa,,,99,18,V,R,
163,37,37,3,1,47,33,1066,['c'],1,left,['8'],4,173,[0.16100008],100,47,medium,plus,dotcolour,alfa,,,99,18,V,R,
164,38,38,3,1,36,44,950,['c'],0,right,['8'],4,65,[0.0992541],100,44,hard,plus,dotcolour,alfa,,,99,18,V,R,
165,39,39,3,1,47,33,967,['c'],1,left,['8'],4,105,[0.07734068],100,47,medium,plus,dotcolour,alfa,,,99,18,V,R,
166,40,40,3,1,53,27,1084,['c'],1,left,['8'],4,67,[0.11195106],100,53,easy,plus,dotcolour,alfa,,,99,18,V,R,
167,41,41,3,1,36,44,1501,['n'],1,right,['8'],4,86,[-0.04839192],100,44,hard,plus,dotcolour,alfa,,,99,18,V,R,
168,42,0,4,1,27,53,1349,['n'],1,right,['8'],4,83,[-0.08944145],100,53,easy,plus,dotcolour,alfa,,,99,18,V,R,
169,43,1,4,1,44,36,801,['c'],1,left,['8'],4,73,[0.00189144],56,44,hard,plus,dotcolour,alfa,,,99,18,V,R,
170,44,2,4,1,33,47,583,['n'],1,right,['8'],4,88,[-0.08047253],100,47,medium,plus,dotcolour,alfa,,,99,18,V,R,
171,45,3,4,1,44,36,566,['n'],0,left,['3'],3,608,[0.05885946],6,44,hard,plus,dotcolour,alfa,,,99,18,V,R,
172,46,4,4,1,27,53,800,['n'],1,right,['8'],4,16,[-0.06691075],100,53,easy,plus,dotcolour,alfa,,,99,18,V,R,
173,47,5,4,1,44,36,867,['c'],1,left,['8'],4,87,[0.10579675],100,44,hard,plus,dotcolour,alfa,,,99,18,V,R,
174,48,6,4,1,36,44,1682,['n'],1,right,['3'],3,185,[-0.00295973],56,44,hard,plus,dotcolour,alfa,,,99,18,V,R,
175,49,7,4,1,33,47,899,['c'],0,right,['8'],4,87,[0.07303061],100,47,medium,plus,dotcolour,alfa,,,99,18,V,R,
176,50,8,4,1,44,36,950,['c'],1,left,['8'],4,71,[0.07310781],100,44,hard,plus,dotcolour,alfa,,,99,18,V,R,
177,51,9,4,1,33,47,516,['n'],1,right,['8'],4,105,[-0.11704009],100,47,medium,plus,dotcolour,alfa,,,99,18,V,R,
178,52,10,4,1,47,33,867,['c'],1,left,['9'],5,156,[0.08457637],100,47,medium,plus,dotcolour,alfa,,,99,18,V,R,
179,53,11,4,1,33,47,884,['n'],1,right,['8'],4,68,[-0.05429784],100,47,medium,plus,dotcolour,alfa,,,99,18,V,R,
180,54,12,4,1,53,27,1050,['c'],1,left,['8'],4,88,[0.03761643],99,53,easy,plus,dotcolour,alfa,,,99,18,V,R,
181,55,13,4,1,36,44,832,['n'],1,right,['8'],4,101,[-0.01409354],83,44,hard,plus,dotcolour,alfa,,,99,18,V,R,
182,56,14,4,1,36,44,667,['n'],1,right,['8'],4,152,[-0.09851541],100,44,hard,plus,dotcolour,alfa,,,99,18,V,R,
183,57,15,4,1,44,36,1134,['c'],1,left,['8'],4,70,[0.08767479],100,44,hard,plus,dotcolour,alfa,,,99,18,V,R,
184,58,16,4,1,47,33,949,['c'],1,left,['8'],4,63,[0.0870359],100,47,medium,plus,dotcolour,alfa,,,99,18,V,R,
185,59,17,4,1,53,27,834,['c'],1,left,['8'],4,52,[0.07361257],100,53,easy,plus,dotcolour,alfa,,,99,18,V,R,
186,60,18,4,1,47,33,900,['c'],1,left,['9'],5,143,[0.05799791],100,47,medium,plus,dotcolour,alfa,,,99,18,V,R,
187,61,19,4,1,36,44,883,['n'],1,right,['8'],4,87,[-0.10604715],100,44,hard,plus,dotcolour,alfa,,,99,18,V,R,
188,62,20,4,1,47,33,568,['c'],1,left,['8'],4,79,[0.1074914],100,47,medium,plus,dotcolour,alfa,,,99,18,V,R,
189,63,21,4,1,53,27,501,['c'],1,left,['8'],4,49,[0.11258674],100,53,easy,plus,dotcolour,alfa,,,99,18,V,R,
190,64,22,4,1,36,44,783,['n'],1,right,['9'],5,81,[-0.11031008],100,44,hard,plus,dotcolour,alfa,,,99,18,V,R,
191,65,23,4,1,53,27,883,['c'],1,left,['9'],5,75,[0.0720666],100,53,easy,plus,dotcolour,alfa,,,99,18,V,R,
192,66,24,4,1,53,27,884,['c'],1,left,['8'],4,54,[0.08142425],100,53,easy,plus,dotcolour,alfa,,,99,18,V,R,
193,67,25,4,1,27,53,667,['n'],1,right,['9'],5,99,[-0.04865261],100,53,easy,plus,dotcolour,alfa,,,99,18,V,R,
194,68,26,4,1,53,27,650,['c'],1,left,['9'],5,78,[0.10838869],100,53,easy,plus,dotcolour,alfa,,,99,18,V,R,
195,69,27,4,1,27,53,700,['n'],1,right,['9'],5,88,[-0.0458187],100,53,easy,plus,dotcolour,alfa,,,99,18,V,R,
196,70,28,4,1,33,47,550,['n'],1,right,['9'],5,48,[-0.08826263],100,47,medium,plus,dotcolour,alfa,,,99,18,V,R,
197,71,29,4,1,27,53,667,['n'],1,right,['9'],5,821,[-0.37313357],100,53,easy,plus,dotcolour,alfa,,,99,18,V,R,
198,72,30,4,1,44,36,868,['c'],1,left,['8'],4,83,[0.10283984],100,44,hard,plus,dotcolour,alfa,,,99,18,V,R,
199,73,31,4,1,33,47,817,['n'],1,right,['9'],5,88,[-0.07487437],100,47,medium,plus,dotcolour,alfa,,,99,18,V,R,
200,74,32,4,1,47,33,600,['c'],1,left,['2'],2,853,[0.17754571],100,47,medium,plus,dotcolour,alfa,,,99,18,V,R,
201,75,33,4,1,44,36,1466,['c'],1,left,['8'],4,1194,[0.17603847],100,44,hard,plus,dotcolour,alfa,,,99,18,V,R,
202,76,34,4,1,33,47,617,['n'],1,right,['8'],4,90,[-0.0738497],100,47,medium,plus,dotcolour,alfa,,,99,18,V,R,
203,77,35,4,1,27,53,549,['n'],1,right,['8'],4,90,[-0.06027288],100,53,easy,plus,dotcolour,alfa,,,99,18,V,R,
204,78,36,4,1,27,53,767,['n'],1,right,['9'],5,66,[-0.07529873],100,53,easy,plus,dotcolour,alfa,,,99,18,V,R,
205,79,37,4,1,53,27,750,['c'],1,left,['9'],5,98,[0.05386185],100,53,easy,plus,dotcolour,alfa,,,99,18,V,R,
206,80,38,4,1,47,33,933,['c'],1,left,['8'],4,458,[0.05699319],95,47,medium,plus,dotcolour,alfa,,,99,18,V,R,
207,81,39,4,1,47,33,800,['c'],1,left,['3'],3,432,[0.1403808],100,47,medium,plus,dotcolour,alfa,,,99,18,V,R,
208,82,40,4,1,36,44,1133,['n'],1,right,['8'],4,203,[-0.16323017],100,44,hard,plus,dotcolour,alfa,,,99,18,V,R,
209,83,41,4,1,36,44,967,['n'],1,right,['8'],4,102,[-0.0587943],100,44,hard,plus,dotcolour,alfa,,,99,18,V,R,
210,84,0,5,1,36,44,901,['c'],0,right,['8'],4,162,[0.06896117],100,44,hard,plus,dotcolour,alfa,,,99,18,V,R,
211,85,1,5,1,53,27,717,['c'],1,left,['8'],4,128,[0.13252077],100,53,easy,plus,dotcolour,alfa,,,99,18,V,R,
212,86,2,5,1,36,44,651,['n'],1,right,['8'],4,82,[-0.11688768],100,44,hard,plus,dotcolour,alfa,,,99,18,V,R,
213,87,3,5,1,47,33,949,['c'],1,left,['2'],2,114,[0.06803742],100,47,medium,plus,dotcolour,alfa,,,99,18,V,R,
214,88,4,5,1,44,36,700,['c'],1,left,['8'],4,114,[0.08927795],100,44,hard,plus,dotcolour,alfa,,,99,18,V,R,
215,89,5,5,1,44,36,867,['n'],0,left,['8'],4,109,[-0.03958858],99,44,hard,plus,dotcolour,alfa,,,99,18,V,R,
216,90,6,5,1,33,47,1034,['n'],1,right,['3'],3,272,[-0.04513414],96,47,medium,plus,dotcolour,alfa,,,99,18,V,R,
217,91,7,5,1,36,44,1067,['c'],0,right,['8'],4,68,[0.03767615],99,44,hard,plus,dotcolour,alfa,,,99,18,V,R,
218,92,8,5,1,27,53,517,['n'],1,right,['8'],4,94,[-0.07509722],100,53,easy,plus,dotcolour,alfa,,,99,18,V,R,
219,93,9,5,1,53,27,1550,['c'],1,left,['9'],5,628,[0.12508064],100,53,easy,plus,dotcolour,alfa,,,99,18,V,R,
220,94,10,5,1,33,47,1434,['c'],0,right,['8'],4,483,[-0.03897645],12,47,medium,plus,dotcolour,alfa,,,99,18,V,R,
221,95,11,5,1,53,27,783,['c'],1,left,['8'],4,178,[0.0744112],100,53,easy,plus,dotcolour,alfa,,,99,18,V,R,
222,96,12,5,1,33,47,684,['n'],1,right,['9'],5,193,[-0.07696039],100,47,medium,plus,dotcolour,alfa,,,99,18,V,R,
223,97,13,5,1,44,36,900,['c'],1,left,['8'],4,126,[0.05845818],100,44,hard,plus,dotcolour,alfa,,,99,18,V,R,
224,98,14,5,1,44,36,833,['c'],1,left,['8'],4,81,[0.08096408],100,44,hard,plus,dotcolour,alfa,,,99,18,V,R,
225,99,15,5,1,27,53,717,['n'],1,right,['8'],4,122,[-0.04514322],99,53,easy,plus,dotcolour,alfa,,,99,18,V,R,
226,100,16,5,1,44,36,867,['n'],0,left,['8'],4,84,[-0.07617849],100,44,hard,plus,dotcolour,alfa,,,99,18,V,R,
227,101,17,5,1,44,36,1649,['c'],1,left,['9'],5,193,[0.03354488],94,44,hard,plus,dotcolour,alfa,,,99,18,V,R,
228,102,18,5,1,33,47,584,['n'],1,right,['9'],5,98,[-0.0756438],100,47,medium,plus,dotcolour,alfa,,,99,18,V,R,
229,103,19,5,1,47,33,650,['c'],1,left,['8'],4,102,[0.07761068],100,47,medium,plus,dotcolour,alfa,,,99,18,V,R,
230,104,20,5,1,36,44,750,['n'],1,right,['8'],4,694,[-0.05687226],92,44,hard,plus,dotcolour,alfa,,,99,18,V,R,
231,105,21,5,1,53,27,1034,['c'],1,left,['8'],4,89,[0.12433493],100,53,easy,plus,dotcolour,alfa,,,99,18,V,R,
232,106,22,5,1,47,33,667,['c'],1,left,['8'],4,140,[0.11566507],100,47,medium,plus,dotcolour,alfa,,,99,18,V,R,
233,107,23,5,1,47,33,534,['c'],1,left,['8'],4,98,[0.09019184],100,47,medium,plus,dotcolour,alfa,,,99,18,V,R,
234,108,24,5,1,27,53,567,['n'],1,right,['8'],4,106,[-0.08388932],100,53,easy,plus,dotcolour,alfa,,,99,18,V,R,
235,109,25,5,1,33,47,717,['n'],1,right,['9'],5,138,[-0.1057597],100,47,medium,plus,dotcolour,alfa,,,99,18,V,R,
236,110,26,5,1,36,44,600,['n'],1,right,['9'],5,94,[-0.0816176],100,44,hard,plus,dotcolour,alfa,,,99,18,V,R,
237,111,27,5,1,53,27,633,['n'],0,left,['8'],4,99,[-0.05880024],100,53,easy,plus,dotcolour,alfa,,,99,18,V,R,
238,112,28,5,1,36,44,901,['c'],0,right,['8'],4,100,[0.04643636],99,44,hard,plus,dotcolour,alfa,,,99,18,V,R,
239,113,29,5,1,27,53,567,['n'],1,right,['8'],4,66,[-0.09096015],100,53,easy,plus,dotcolour,alfa,,,99,18,V,R,
240,114,30,5,1,47,33,617,['c'],1,left,['8'],4,96,[0.08026678],100,47,medium,plus,dotcolour,alfa,,,99,18,V,R,
241,115,31,5,1,53,27,516,['c'],1,left,['8'],4,88,[0.09171626],100,53,easy,plus,dotcolour,alfa,,,99,18,V,R,
242,116,32,5,1,47,33,617,['c'],1,left,['8'],4,86,[0.00988025],77,47,medium,plus,dotcolour,alfa,,,99,18,V,R,
243,117,33,5,1,33,47,734,['n'],1,right,['8'],4,119,[-0.0730592],100,47,medium,plus,dotcolour,alfa,,,99,18,V,R,
244,118,34,5,1,27,53,784,['n'],1,right,['9'],5,132,[-0.04761471],99,53,easy,plus,dotcolour,alfa,,,99,18,V,R,
245,119,35,5,1,36,44,467,['n'],1,right,['9'],5,141,[-0.16572956],100,44,hard,plus,dotcolour,alfa,,,99,18,V,R,
246,120,36,5,1,33,47,682,['n'],1,right,['8'],4,29,[-0.09228231],100,47,medium,plus,dotcolour,alfa,,,99,18,V,R,
247,121,37,5,1,27,53,667,['n'],1,right,['9'],5,195,[-0.08660192],100,53,easy,plus,dotcolour,alfa,,,99,18,V,R,
248,122,38,5,1,47,33,1067,['c'],1,left,['8'],4,257,[0.09784988],100,47,medium,plus,dotcolour,alfa,,,99,18,V,R,
249,123,39,5,1,53,27,567,['c'],1,left,['9'],5,89,[0.0088843],74,53,easy,plus,dotcolour,alfa,,,99,18,V,R,
250,124,40,5,1,44,36,534,['c'],1,left,['9'],5,106,[0.07295736],100,44,hard,plus,dotcolour,alfa,,,99,18,V,R,
251,125,41,5,1,27,53,683,['n'],1,right,['9'],5,100,[-0.11073678],100,53,easy,plus,dotcolour,alfa,,,99,18,V,R,
252,0,0,6,2,33,47,684,['n'],1,right,['9'],5,146,[-0.12641098],95,47,medium,minus,dotcolour,alfa,,,99,18,V,R,
253,1,1,6,2,47,33,1683,['c'],1,left,['8'],4,1698,[0.33480954],91,47,medium,minus,dotcolour,alfa,,,99,18,V,R,
254,2,2,6,2,27,53,617,['n'],1,right,['9'],5,110,[-0.04877782],79,53,easy,minus,dotcolour,alfa,,,99,18,V,R,
255,3,3,6,2,36,44,767,['c'],0,right,['8'],4,101,[0.0769163],90,44,hard,minus,dotcolour,alfa,,,99,18,V,R,
256,4,4,6,2,27,53,550,['n'],1,right,['9'],5,147,[-0.0960719],91,53,easy,minus,dotcolour,alfa,,,99,18,V,R,
257,5,5,6,2,44,36,517,['n'],0,left,['2'],2,802,[0.00966904],48,44,hard,minus,dotcolour,alfa,,,99,18,V,R,
258,6,6,6,2,27,53,649,['n'],1,right,['9'],5,89,[-0.15332972],99,53,easy,minus,dotcolour,alfa,,,99,18,V,R,
259,7,7,6,2,44,36,801,['c'],1,left,['9'],5,95,[0.11298236],96,44,hard,minus,dotcolour,alfa,,,99,18,V,R,
260,8,8,6,2,36,44,767,['n'],1,right,['9'],5,126,[-0.0698012],85,44,hard,minus,dotcolour,alfa,,,99,18,V,R,
261,9,9,6,2,33,47,934,['n'],1,right,['9'],5,100,[-0.10288112],95,47,medium,minus,dotcolour,alfa,,,99,18,V,R,
262,10,10,6,2,44,36,1235,['c'],1,left,['8'],4,104,[0.10809546],95,44,hard,minus,dotcolour,alfa,,,99,18,V,R,
263,11,11,6,2,44,36,749,['c'],1,left,['8'],4,104,[0.09801839],94,44,hard,minus,dotcolour,alfa,,,99,18,V,R,
264,12,12,6,2,44,36,783,['c'],1,left,['8'],4,102,[0.06075824],85,44,hard,minus,dotcolour,alfa,,,99,18,V,R,
265,13,13,6,2,53,27,551,['c'],1,left,['8'],4,101,[0.05706905],83,53,easy,minus,dotcolour,alfa,,,99,18,V,R,
266,14,14,6,2,44,36,1000,['c'],1,left,['3'],3,122,[0.03991214],74,44,hard,minus,dotcolour,alfa,,,99,18,V,R,
267,15,15,6,2,33,47,784,['n'],1,right,['8'],4,120,[-0.05919982],82,47,medium,minus,dotcolour,alfa,,,99,18,V,R,
268,16,16,6,2,36,44,766,['c'],0,right,['8'],4,102,[0.04320383],77,44,hard,minus,dotcolour,alfa,,,99,18,V,R,
269,17,17,6,2,27,53,568,['n'],1,right,['9'],5,117,[-0.06622485],85,53,easy,minus,dotcolour,alfa,,,99,18,V,R,
270,18,18,6,2,44,36,650,['c'],1,left,['9'],5,103,[0.0859258],92,44,hard,minus,dotcolour,alfa,,,99,18,V,R,
271,19,19,6,2,27,53,483,['n'],1,right,['9'],5,89,[-0.05409468],84,53,easy,minus,dotcolour,alfa,,,99,18,V,R,
272,20,20,6,2,33,47,1017,['n'],1,right,['9'],5,63,[-0.09780109],97,47,medium,minus,dotcolour,alfa,,,99,18,V,R,
273,21,21,6,2,36,44,867,['c'],0,right,['9'],5,171,[0.07734519],84,44,hard,minus,dotcolour,alfa,,,99,18,V,R,
274,22,22,6,2,36,44,1050,['n'],1,right,['9'],5,131,[-0.0165301],60,44,hard,minus,dotcolour,alfa,,,99,18,V,R,
275,23,23,6,2,36,44,867,['n'],1,right,['9'],5,93,[-0.1047502],96,44,hard,minus,dotcolour,alfa,,,99,18,V,R,
276,24,24,6,2,53,27,583,['c'],1,left,['8'],4,83,[0.09579921],95,53,easy,minus,dotcolour,alfa,,,99,18,V,R,
277,25,25,6,2,33,47,634,['n'],1,right,['9'],5,103,[-0.09606618],94,47,medium,minus,dotcolour,alfa,,,99,18,V,R,
278,26,26,6,2,33,47,850,['c'],0,right,['9'],5,75,[0.01821329],65,47,medium,minus,dotcolour,alfa,,,99,18,V,R,
279,27,27,6,2,36,44,1433,['n'],1,right,['3'],3,136,[-0.06796109],84,44,hard,minus,dotcolour,alfa,,,99,18,V,R,
280,28,28,6,2,47,33,884,['c'],1,left,['3'],3,248,[-0.00534836],48,47,medium,minus,dotcolour,alfa,,,99,18,V,R,
281,29,29,6,2,53,27,883,['n'],0,left,['2'],2,788,[0.1004825],27,53,easy,minus,dotcolour,alfa,,,99,18,V,R,
282,30,30,6,2,27,53,650,['n'],1,right,['9'],5,123,[-0.072973],87,53,easy,minus,dotcolour,alfa,,,99,18,V,R,
283,31,31,6,2,47,33,584,['c'],1,left,['8'],4,144,[0.13265233],96,47,medium,minus,dotcolour,alfa,,,99,18,V,R,
284,32,32,6,2,47,33,800,['c'],1,left,['8'],4,99,[0.11005974],96,47,medium,minus,dotcolour,alfa,,,99,18,V,R,
285,33,33,6,2,53,27,517,['c'],1,left,['8'],4,148,[0.0769754],86,53,easy,minus,dotcolour,alfa,,,99,18,V,R,
286,34,34,6,2,53,27,467,['c'],1,left,['9'],5,157,[0.11039573],92,53,easy,minus,dotcolour,alfa,,,99,18,V,R,
287,35,35,6,2,47,33,567,['c'],1,left,['8'],4,129,[0.12308627],96,47,medium,minus,dotcolour,alfa,,,99,18,V,R,
288,36,36,6,2,27,53,734,['n'],1,right,['9'],5,96,[-0.10074058],95,53,easy,minus,dotcolour,alfa,,,99,18,V,R,
289,37,37,6,2,53,27,617,['c'],1,left,['9'],5,100,[0.07221408],89,53,easy,minus,dotcolour,alfa,,,99,18,V,R,
290,38,38,6,2,47,33,500,['c'],1,left,['9'],5,110,[0.09011273],92,47,medium,minus,dotcolour,alfa,,,99,18,V,R,
291,39,39,6,2,47,33,517,['c'],1,left,['9'],5,93,[0.12694111],98,47,medium,minus,dotcolour,alfa,,,99,18,V,R,
292,40,40,6,2,53,27,501,['c'],1,left,['9'],5,111,[0.050673],80,53,easy,minus,dotcolour,alfa,,,99,18,V,R,
293,41,41,6,2,33,47,783,['n'],1,right,['9'],5,132,[-0.0947497],91,47,medium,minus,dotcolour,alfa,,,99,18,V,R,
294,42,0,7,2,44,36,2801,['c'],1,left,['1'],1,449,[0.01954465],57,44,hard,minus,dotcolour,alfa,,,99,18,V,R,
295,43,1,7,2,47,33,2851,['n'],0,left,['3'],3,462,[0.08769315],24,47,medium,minus,dotcolour,alfa,,,99,18,V,R,
296,44,2,7,2,53,27,566,['c'],1,left,['9'],5,182,[0.09154298],87,53,easy,minus,dotcolour,alfa,,,99,18,V,R,
297,45,3,7,2,47,33,1650,['c'],1,left,['8'],4,159,[0.1224572],94,47,medium,minus,dotcolour,alfa,,,99,18,V,R,
298,46,4,7,2,47,33,567,['c'],1,left,['8'],4,107,[0.11972622],96,47,medium,minus,dotcolour,alfa,,,99,18,V,R,
299,47,5,7,2,44,36,650,['c'],1,left,['8'],4,117,[0.13810244],97,44,hard,minus,dotcolour,alfa,,,99,18,V,R,
300,48,6,7,2,47,33,634,['n'],0,left,['8'],4,16,[-0.06212907],99,47,medium,minus,dotcolour,alfa,,,99,18,V,R,
301,49,7,7,2,33,47,517,['n'],1,right,['8'],4,93,[-0.05592879],84,47,medium,minus,dotcolour,alfa,,,99,18,V,R,
302,50,8,7,2,44,36,383,['c'],1,left,['8'],4,59,[0.06649572],92,44,hard,minus,dotcolour,alfa,,,99,18,V,R,
303,51,9,7,2,27,53,583,['n'],1,right,['8'],4,66,[-0.06411953],90,53,easy,minus,dotcolour,alfa,,,99,18,V,R,
304,52,10,7,2,27,53,433,['n'],1,right,['9'],5,135,[-0.09659413],91,53,easy,minus,dotcolour,alfa,,,99,18,V,R,
305,53,11,7,2,47,33,567,['c'],1,left,['8'],4,93,[0.04553075],79,47,medium,minus,dotcolour,alfa,,,99,18,V,R,
306,54,12,7,2,33,47,467,['n'],1,right,['8'],4,119,[-0.12531656],96,47,medium,minus,dotcolour,alfa,,,99,18,V,R,
307,55,13,7,2,33,47,467,['n'],1,right,['8'],4,81,[-0.08188375],93,47,medium,minus,dotcolour,alfa,,,99,18,V,R,
308,56,14,7,2,36,44,534,['n'],1,right,['8'],4,106,[-0.10375108],95,44,hard,minus,dotcolour,alfa,,,99,18,V,R,
309,57,15,7,2,36,44,484,['n'],1,right,['8'],4,4,[-0.07256433],100,44,hard,minus,dotcolour,alfa,,,99,18,V,R,
310,58,16,7,2,44,36,599,['c'],1,left,['8'],4,93,[0.0656944],87,44,hard,minus,dotcolour,alfa,,,99,18,V,R,
311,59,17,7,2,53,27,867,['c'],1,left,['8'],4,80,[0.07913601],93,53,easy,minus,dotcolour,alfa,,,99,18,V,R,
312,60,18,7,2,33,47,617,['c'],0,right,['8'],4,93,[0.04909125],81,47,medium,minus,dotcolour,alfa,,,99,18,V,R,
313,61,19,7,2,27,53,550,['n'],1,right,['8'],4,108,[-0.09064775],92,53,easy,minus,dotcolour,alfa,,,99,18,V,R,
314,62,20,7,2,27,53,501,['n'],1,right,['8'],4,53,[-0.09902595],98,53,easy,minus,dotcolour,alfa,,,99,18,V,R,
315,63,21,7,2,33,47,734,['n'],1,right,['8'],4,63,[-0.05175358],86,47,medium,minus,dotcolour,alfa,,,99,18,V,R,
316,64,22,7,2,47,33,567,['c'],1,left,['8'],4,87,[0.11329918],97,47,medium,minus,dotcolour,alfa,,,99,18,V,R,
317,65,23,7,2,53,27,633,['c'],1,left,['8'],4,100,[0.09027072],93,53,easy,minus,dotcolour,alfa,,,99,18,V,R,
318,66,24,7,2,44,36,1033,['n'],0,left,['8'],4,1272,[0.08936527],33,44,hard,minus,dotcolour,alfa,,,99,18,V,R,
319,67,25,7,2,33,47,1600,['n'],1,right,['8'],4,1222,[-0.25715037],89,47,medium,minus,dotcolour,alfa,,,99,18,V,R,
320,68,26,7,2,53,27,650,['c'],1,left,['8'],4,84,[0.02351805],67,53,easy,minus,dotcolour,alfa,,,99,18,V,R,
321,69,27,7,2,33,47,867,['n'],1,right,['8'],4,623,[-0.06241096],67,47,medium,minus,dotcolour,alfa,,,99,18,V,R,
322,70,28,7,2,36,44,633,['n'],1,right,['8'],4,38,[-0.06389611],95,44,hard,minus,dotcolour,alfa,,,99,18,V,R,
323,71,29,7,2,47,33,583,['c'],1,left,['8'],4,158,[0.08381041],87,47,medium,minus,dotcolour,alfa,,,99,18,V,R,
324,72,30,7,2,27,53,1684,['n'],1,right,['8'],4,710,[-0.14415785],82,53,easy,minus,dotcolour,alfa,,,99,18,V,R,
325,73,31,7,2,27,53,700,['n'],1,right,['8'],4,94,[-0.08915465],93,53,easy,minus,dotcolour,alfa,,,99,18,V,R,
326,74,32,7,2,36,44,550,['n'],1,right,['8'],4,110,[-0.05435916],81,44,hard,minus,dotcolour,alfa,,,99,18,V,R,
327,75,33,7,2,44,36,1350,['c'],1,left,['8'],4,173,[0.07385841],83,44,hard,minus,dotcolour,alfa,,,99,18,V,R,
328,76,34,7,2,53,27,534,['c'],1,left,['8'],4,73,[0.05496836],86,53,easy,minus,dotcolour,alfa,,,99,18,V,R,
329,77,35,7,2,27,53,484,['c'],0,right,['8'],4,205,[-0.01249272],44,53,easy,minus,dotcolour,alfa,,,99,18,V,R,
330,78,36,7,2,36,44,816,['n'],1,right,['8'],4,117,[-0.06998609],86,44,hard,minus,dotcolour,alfa,,,99,18,V,R,
331,79,37,7,2,53,27,467,['c'],1,left,['8'],4,79,[0.103836],97,53,easy,minus,dotcolour,alfa,,,99,18,V,R,
332,80,38,7,2,36,44,433,['n'],1,right,['8'],4,132,[-0.06210455],82,44,hard,minus,dotcolour,alfa,,,99,18,V,R,
333,81,39,7,2,36,44,701,['c'],0,right,['8'],4,108,[0.04014076],75,44,hard,minus,dotcolour,alfa,,,99,18,V,R,
334,82,40,7,2,44,36,800,['c'],1,left,['8'],4,112,[0.1071001],95,44,hard,minus,dotcolour,alfa,,,99,18,V,R,
335,83,41,7,2,53,27,601,['c'],1,left,['8'],4,93,[0.09349115],94,53,easy,minus,dotcolour,alfa,,,99,18,V,R,
336,84,0,8,2,33,47,684,['n'],1,right,['8'],4,27,[-0.05701234],96,47,medium,minus,dotcolour,alfa,,,99,18,V,R,
337,85,1,8,2,27,53,566,['n'],1,right,['8'],4,116,[-0.07788501],89,53,easy,minus,dotcolour,alfa,,,99,18,V,R,
338,86,2,8,2,47,33,834,['c'],1,left,['8'],4,56,[0.11713112],99,47,medium,minus,dotcolour,alfa,,,99,18,V,R,
339,87,3,8,2,27,53,650,['n'],1,right,['8'],4,77,[-0.08697639],94,53,easy,minus,dotcolour,alfa,,,99,18,V,R,
340,88,4,8,2,53,27,550,['n'],0,left,['8'],4,85,[-0.0773836],92,53,easy,minus,dotcolour,alfa,,,99,18,V,R,
341,89,5,8,2,36,44,917,['n'],1,right,['8'],4,119,[-0.10137471],93,44,hard,minus,dotcolour,alfa,,,99,18,V,R,
342,90,6,8,2,47,33,850,['c'],1,left,['8'],4,89,[0.07851502],91,47,medium,minus,dotcolour,alfa,,,99,18,V,R,
343,91,7,8,2,47,33,484,['c'],1,left,['8'],4,76,[0.10740229],97,47,medium,minus,dotcolour,alfa,,,99,18,V,R,
344,92,8,8,2,53,27,434,['c'],1,left,['8'],4,97,[0.0673954],88,53,easy,minus,dotcolour,alfa,,,99,18,V,R,
345,93,9,8,2,44,36,684,['n'],0,left,['2'],2,819,[-0.16978685],84,44,hard,minus,dotcolour,alfa,,,99,18,V,R,
346,94,10,8,2,33,47,983,['n'],1,right,['8'],4,868,[-0.22529187],90,47,medium,minus,dotcolour,alfa,,,99,18,V,R,
347,95,11,8,2,44,36,1467,['n'],0,left,['8'],4,207,[0.00191131],49,44,hard,minus,dotcolour,alfa,,,99,18,V,R,
348,96,12,8,2,33,47,517,['n'],1,right,['8'],4,99,[-0.07551648],90,47,medium,minus,dotcolour,alfa,,,99,18,V,R,
349,97,13,8,2,36,44,516,['n'],1,right,['8'],4,140,[-0.07993098],87,44,hard,minus,dotcolour,alfa,,,99,18,V,R,
350,98,14,8,2,44,36,683,['c'],1,left,['8'],4,76,[0.07911927],93,44,hard,minus,dotcolour,alfa,,,99,18,V,R,
351,99,15,8,2,44,36,883,['c'],1,left,['8'],4,94,[0.09871604],95,44,hard,minus,dotcolour,alfa,,,99,18,V,R,
352,100,16,8,2,33,47,550,['n'],1,right,['8'],4,118,[-0.09959459],93,47,medium,minus,dotcolour,alfa,,,99,18,V,R,
353,101,17,8,2,44,36,600,['n'],0,left,['8'],4,107,[-0.06995944],87,44,hard,minus,dotcolour,alfa,,,99,18,V,R,
354,102,18,8,2,44,36,934,['c'],1,left,['8'],4,18,[0.05739463],98,44,hard,minus,dotcolour,alfa,,,99,18,V,R,
355,103,19,8,2,36,44,800,['n'],1,right,['8'],4,114,[-0.08363205],90,44,hard,minus,dotcolour,alfa,,,99,18,V,R,
356,104,20,8,2,53,27,517,['c'],1,left,['8'],4,131,[0.05988774],82,53,easy,minus,dotcolour,alfa,,,99,18,V,R,
357,105,21,8,2,53,27,400,['c'],1,left,['8'],4,166,[0.05395067],77,53,easy,minus,dotcolour,alfa,,,99,18,V,R,
358,106,22,8,2,53,27,600,['c'],1,left,['8'],4,233,[0.12938468],92,53,easy,minus,dotcolour,alfa,,,99,18,V,R,
359,107,23,8,2,53,27,733,['n'],0,left,['2'],2,540,[0.08702316],26,53,easy,minus,dotcolour,alfa,,,99,18,V,R,
360,108,24,8,2,47,33,950,['c'],1,left,['8'],4,81,[0.08820812],94,47,medium,minus,dotcolour,alfa,,,99,18,V,R,
361,109,25,8,2,27,53,499,['n'],1,right,['8'],4,99,[-0.02706189],68,53,easy,minus,dotcolour,alfa,,,99,18,V,R,
362,110,26,8,2,36,44,816,['n'],1,right,['9'],5,152,[-0.06924482],83,44,hard,minus,dotcolour,alfa,,,99,18,V,R,
363,111,27,8,2,36,44,633,['c'],0,right,['8'],4,210,[0.10670639],89,44,hard,minus,dotcolour,alfa,,,99,18,V,R,
364,112,28,8,2,27,53,683,['n'],1,right,['9'],5,120,[-0.0516477],79,53,easy,minus,dotcolour,alfa,,,99,18,V,R,
365,113,29,8,2,47,33,633,['c'],1,left,['8'],4,162,[0.11172367],92,47,medium,minus,dotcolour,alfa,,,99,18,V,R,
366,114,30,8,2,33,47,633,['n'],1,right,['8'],4,148,[-0.09829236],91,47,medium,minus,dotcolour,alfa,,,99,18,V,R,
367,115,31,8,2,36,44,601,['n'],1,right,['8'],4,88,[-0.10143838],96,44,hard,minus,dotcolour,alfa,,,99,18,V,R,
368,116,32,8,2,33,47,768,['c'],0,right,['8'],4,143,[0.05515448],79,47,medium,minus,dotcolour,alfa,,,99,18,V,R,
369,117,33,8,2,44,36,467,['c'],1,left,['8'],4,112,[0.05899125],83,44,hard,minus,dotcolour,alfa,,,99,18,V,R,
370,118,34,8,2,33,47,666,['n'],1,right,['8'],4,49,[-0.11740556],99,47,medium,minus,dotcolour,alfa,,,99,18,V,R,
371,119,35,8,2,27,53,533,['n'],1,right,['8'],4,91,[-0.09665092],95,53,easy,minus,dotcolour,alfa,,,99,18,V,R,
372,120,36,8,2,53,27,650,['c'],1,left,['8'],4,127,[0.09281247],91,53,easy,minus,dotcolour,alfa,,,99,18,V,R,
373,121,37,8,2,36,44,983,['n'],1,right,['2'],2,324,[-0.00298438],51,44,hard,minus,dotcolour,alfa,,,99,18,V,R,
374,122,38,8,2,47,33,716,['c'],1,left,['8'],4,123,[0.10450732],94,47,medium,minus,dotcolour,alfa,,,99,18,V,R,
375,123,39,8,2,27,53,618,['n'],1,right,['8'],4,102,[-0.09877931],94,53,easy,minus,dotcolour,alfa,,,99,18,V,R,
376,124,40,8,2,47,33,416,['c'],1,left,['8'],4,147,[0.04854733],76,47,medium,minus,dotcolour,alfa,,,99,18,V,R,
377,125,41,8,2,27,53,533,['n'],1,right,['8'],4,65,[-0.12924957],99,53,easy,minus,dotcolour,alfa,,,99,18,V,R,
378,0,0,9,3,27,53,984,['n'],1,right,['8'],4,87,[-0.07672242],100,53,easy,plus,dotcolour,alfa,,,99,18,V,R,
379,1,1,9,3,33,47,617,['n'],1,right,['8'],4,149,[-0.05897745],100,47,medium,plus,dotcolour,alfa,,,99,18,V,R,
380,2,2,9,3,36,44,632,['n'],1,right,['8'],4,110,[-0.09417671],100,44,hard,plus,dotcolour,alfa,,,99,18,V,R,
381,3,3,9,3,36,44,483,['n'],1,right,['8'],4,80,[-0.05338717],100,44,hard,plus,dotcolour,alfa,,,99,18,V,R,
382,4,4,9,3,44,36,801,['c'],1,left,['8'],4,86,[0.07925651],100,44,hard,plus,dotcolour,alfa,,,99,18,V,R,
383,5,5,9,3,27,53,534,['n'],1,right,['8'],4,94,[-0.1233792],100,53,easy,plus,dotcolour,alfa,,,99,18,V,R,
384,6,6,9,3,53,27,467,['c'],1,left,['8'],4,89,[0.06987469],100,53,easy,plus,dotcolour,alfa,,,99,18,V,R,
385,7,7,9,3,44,36,634,['c'],1,left,['8'],4,117,[0.06161275],100,44,hard,plus,dotcolour,alfa,,,99,18,V,R,
386,8,8,9,3,47,33,566,['c'],1,left,['8'],4,131,[0.10726179],100,47,medium,plus,dotcolour,alfa,,,99,18,V,R,
387,9,9,9,3,53,27,434,['c'],1,left,['8'],4,118,[0.19046544],100,53,easy,plus,dotcolour,alfa,,,99,18,V,R,
388,10,10,9,3,44,36,1533,['c'],1,left,['8'],4,102,[0.06549429],100,44,hard,plus,dotcolour,alfa,,,99,18,V,R,
389,11,11,9,3,47,33,433,['c'],1,left,['8'],4,114,[0.10238745],100,47,medium,plus,dotcolour,alfa,,,99,18,V,R,
390,12,12,9,3,27,53,433,['n'],1,right,['8'],4,101,[-0.07072085],100,53,easy,plus,dotcolour,alfa,,,99,18,V,R,
391,13,13,9,3,33,47,467,['n'],1,right,['8'],4,96,[-0.10503968],100,47,medium,plus,dotcolour,alfa,,,99,18,V,R,
392,14,14,9,3,44,36,766,['c'],1,left,['8'],4,79,[0.07691428],100,44,hard,plus,dotcolour,alfa,,,99,18,V,R,
393,15,15,9,3,33,47,584,['c'],0,right,['8'],4,77,[0.01117601],81,47,medium,plus,dotcolour,alfa,,,99,18,V,R,
394,16,16,9,3,53,27,700,['c'],1,left,['8'],4,79,[0.07727578],100,53,easy,plus,dotcolour,alfa,,,99,18,V,R,
395,17,17,9,3,33,47,917,['n'],1,right,['8'],4,104,[-0.1503762],100,47,medium,plus,dotcolour,alfa,,,99,18,V,R,
396,18,18,9,3,53,27,734,['c'],1,left,['8'],4,120,[0.05464303],100,53,easy,plus,dotcolour,alfa,,,99,18,V,R,
397,19,19,9,3,47,33,484,['c'],1,left,['9'],5,114,[0.11832758],100,47,medium,plus,dotcolour,alfa,,,99,18,V,R,
398,20,20,9,3,47,33,650,['n'],0,left,['1'],1,741,[0.01511696],35,47,medium,plus,dotcolour,alfa,,,99,18,V,R,
399,21,21,9,3,53,27,783,['c'],1,left,['8'],4,89,[0.0715405],100,53,easy,plus,dotcolour,alfa,,,99,18,V,R,
400,22,22,9,3,47,33,534,['c'],1,left,['8'],4,89,[0.10962944],100,47,medium,plus,dotcolour,alfa,,,99,18,V,R,
401,23,23,9,3,33,47,567,['n'],1,right,['8'],4,65,[-0.06119208],100,47,medium,plus,dotcolour,alfa,,,99,18,V,R,
402,24,24,9,3,36,44,799,['n'],1,right,['8'],4,31,[-0.09410777],100,44,hard,plus,dotcolour,alfa,,,99,18,V,R,
403,25,25,9,3,27,53,700,['n'],1,right,['8'],4,91,[-0.0639082],100,53,easy,plus,dotcolour,alfa,,,99,18,V,R,
404,26,26,9,3,36,44,550,['n'],1,right,['8'],4,179,[0.02535647],10,44,hard,plus,dotcolour,alfa,,,99,18,V,R,
405,27,27,9,3,44,36,733,['c'],1,left,['8'],4,143,[0.04703706],99,44,hard,plus,dotcolour,alfa,,,99,18,V,R,
406,28,28,9,3,33,47,517,['n'],1,right,['8'],4,111,[-0.06072952],100,47,medium,plus,dotcolour,alfa,,,99,18,V,R,
407,29,29,9,3,27,53,467,['c'],0,right,['3'],3,1409,[-0.05242683],17,53,easy,plus,dotcolour,alfa,,,99,18,V,R,
408,30,30,9,3,44,36,784,['c'],1,left,['8'],4,90,[0.07745434],100,44,hard,plus,dotcolour,alfa,,,99,18,V,R,
409,31,31,9,3,53,27,616,['c'],1,left,['8'],4,110,[0.08474495],100,53,easy,plus,dotcolour,alfa,,,99,18,V,R,
410,32,32,9,3,47,33,866,['c'],1,left,['8'],4,113,[0.12108443],100,47,medium,plus,dotcolour,alfa,,,99,18,V,R,
411,33,33,9,3,44,36,783,['n'],0,left,['8'],4,110,[-0.02711046],95,44,hard,plus,dotcolour,alfa,,,99,18,V,R,
412,34,34,9,3,53,27,550,['c'],1,left,['8'],4,157,[0.09500915],100,53,easy,plus,dotcolour,alfa,,,99,18,V,R,
413,35,35,9,3,36,44,1417,['n'],1,right,['8'],4,983,[-0.01174635],61,44,hard,plus,dotcolour,alfa,,,99,18,V,R,
414,36,36,9,3,27,53,734,['n'],1,right,['8'],4,67,[-0.11909609],100,53,easy,plus,dotcolour,alfa,,,99,18,V,R,
415,37,37,9,3,47,33,600,['c'],1,left,['8'],4,114,[0.09275869],100,47,medium,plus,dotcolour,alfa,,,99,18,V,R,
416,38,38,9,3,33,47,866,['c'],0,right,['3'],3,852,[0.0525953],89,47,medium,plus,dotcolour,alfa,,,99,18,V,R,
417,39,39,9,3,27,53,502,['n'],1,right,['8'],4,94,[-0.14505154],100,53,easy,plus,dotcolour,alfa,,,99,18,V,R,
418,40,40,9,3,36,44,467,['n'],1,right,['8'],4,73,[-0.08832243],100,44,hard,plus,dotcolour,alfa,,,99,18,V,R,
419,41,41,9,3,36,44,518,['n'],1,right,['8'],4,67,[-0.05703733],100,44,hard,plus,dotcolour,alfa,,,99,18,V,R,
420,42,0,10,3,36,44,734,['n'],1,right,['8'],4,31,[-0.08356667],100,44,hard,plus,dotcolour,alfa,,,99,18,V,R,
421,43,1,10,3,47,33,734,['c'],1,left,['8'],4,98,[0.1062517],100,47,medium,plus,dotcolour,alfa,,,99,18,V,R,
422,44,2,10,3,36,44,617,['c'],0,right,['2'],2,911,[-0.10478918],2,44,hard,plus,dotcolour,alfa,,,99,18,V,R,
423,45,3,10,3,47,33,834,['n'],0,left,['1'],1,994,[0.22293228],0,47,medium,plus,dotcolour,alfa,,,99,18,V,R,
424,46,4,10,3,33,47,818,['n'],1,right,['8'],4,547,[-0.23722172],100,47,medium,plus,dotcolour,alfa,,,99,18,V,R,
425,47,5,10,3,33,47,867,['c'],0,right,['8'],4,91,[0.07383952],100,47,medium,plus,dotcolour,alfa,,,99,18,V,R,
426,48,6,10,3,36,44,784,['c'],0,right,['1'],1,714,[-0.00701715],43,44,hard,plus,dotcolour,alfa,,,99,18,V,R,
427,49,7,10,3,44,36,867,['c'],1,left,['8'],4,139,[0.12903312],100,44,hard,plus,dotcolour,alfa,,,99,18,V,R,
428,50,8,10,3,44,36,667,['c'],1,left,['8'],4,60,[0.04155379],100,44,hard,plus,dotcolour,alfa,,,99,18,V,R,
429,51,9,10,3,27,53,583,['n'],1,right,['8'],4,92,[-0.09341757],100,53,easy,plus,dotcolour,alfa,,,99,18,V,R,
430,52,10,10,3,53,27,685,['c'],1,left,['8'],4,102,[0.09279054],100,53,easy,plus,dotcolour,alfa,,,99,18,V,R,
431,53,11,10,3,47,33,534,['c'],1,left,['8'],4,126,[0.07460435],100,47,medium,plus,dotcolour,alfa,,,99,18,V,R,
432,54,12,10,3,33,47,616,['n'],1,right,['8'],4,57,[-0.11399439],100,47,medium,plus,dotcolour,alfa,,,99,18,V,R,
433,55,13,10,3,33,47,1217,['n'],1,right,['8'],4,7,[-0.07420083],100,47,medium,plus,dotcolour,alfa,,,99,18,V,R,
434,56,14,10,3,27,53,600,['n'],1,right,['8'],4,96,[-0.13944373],100,53,easy,plus,dotcolour,alfa,,,99,18,V,R,
435,57,15,10,3,47,33,599,['c'],1,left,['8'],4,117,[-0.00220198],44,47,medium,plus,dotcolour,alfa,,,99,18,V,R,
436,58,16,10,3,33,47,883,['c'],0,right,['8'],4,79,[0.02510194],96,47,medium,plus,dotcolour,alfa,,,99,18,V,R,
437,59,17,10,3,53,27,550,['c'],1,left,['8'],4,111,[0.09596314],100,53,easy,plus,dotcolour,alfa,,,99,18,V,R,
438,60,18,10,3,47,33,617,['c'],1,left,['8'],4,83,[0.11726958],100,47,medium,plus,dotcolour,alfa,,,99,18,V,R,
439,61,19,10,3,27,53,583,['n'],1,right,['8'],4,105,[-0.13412448],100,53,easy,plus,dotcolour,alfa,,,99,18,V,R,
440,62,20,10,3,47,33,1183,['c'],1,left,['8'],4,95,[0.12609788],100,47,medium,plus,dotcolour,alfa,,,99,18,V,R,
441,63,21,10,3,27,53,716,['n'],1,right,['8'],4,88,[-0.10560993],100,53,easy,plus,dotcolour,alfa,,,99,18,V,R,
442,64,22,10,3,53,27,634,['c'],1,left,['8'],4,126,[0.08786239],100,53,easy,plus,dotcolour,alfa,,,99,18,V,R,
443,65,23,10,3,27,53,717,['n'],1,right,['8'],4,93,[-0.07154807],100,53,easy,plus,dotcolour,alfa,,,99,18,V,R,
444,66,24,10,3,27,53,583,['n'],1,right,['8'],4,106,[-0.14227181],100,53,easy,plus,dotcolour,alfa,,,99,18,V,R,
445,67,25,10,3,36,44,684,['c'],0,right,['8'],4,92,[0.0555437],100,44,hard,plus,dotcolour,alfa,,,99,18,V,R,
446,68,26,10,3,44,36,651,['n'],0,left,['8'],4,64,[-0.06123081],100,44,hard,plus,dotcolour,alfa,,,99,18,V,R,
447,69,27,10,3,27,53,484,['n'],1,right,['9'],5,139,[-0.0660699],100,53,easy,plus,dotcolour,alfa,,,99,18,V,R,
448,70,28,10,3,53,27,683,['c'],1,left,['8'],4,108,[0.0962873],100,53,easy,plus,dotcolour,alfa,,,99,18,V,R,
449,71,29,10,3,33,47,616,['n'],1,right,['9'],5,104,[-0.10034799],100,47,medium,plus,dotcolour,alfa,,,99,18,V,R,
450,72,30,10,3,53,27,500,['c'],1,left,['9'],5,81,[0.11056522],100,53,easy,plus,dotcolour,alfa,,,99,18,V,R,
451,73,31,10,3,36,44,717,['n'],1,right,['8'],4,115,[-0.02691649],95,44,hard,plus,dotcolour,alfa,,,99,18,V,R,
452,74,32,10,3,53,27,384,['c'],1,left,['8'],4,96,[0.12463873],100,53,easy,plus,dotcolour,alfa,,,99,18,V,R,
453,75,33,10,3,44,36,1000,['c'],1,left,['9'],5,109,[0.03246686],97,44,hard,plus,dotcolour,alfa,,,99,18,V,R,
454,76,34,10,3,44,36,450,['c'],1,left,['8'],4,88,[0.05661544],100,44,hard,plus,dotcolour,alfa,,,99,18,V,R,
455,77,35,10,3,53,27,600,['c'],1,left,['8'],4,182,[0.08521511],100,53,easy,plus,dotcolour,alfa,,,99,18,V,R,
456,78,36,10,3,36,44,782,['n'],1,right,['8'],4,112,[-0.13554873],100,44,hard,plus,dotcolour,alfa,,,99,18,V,R,
457,79,37,10,3,44,36,600,['n'],0,left,['8'],4,109,[-0.04643953],99,44,hard,plus,dotcolour,alfa,,,99,18,V,R,
458,80,38,10,3,47,33,551,['n'],0,left,['8'],4,92,[-0.06389799],100,47,medium,plus,dotcolour,alfa,,,99,18,V,R,
459,81,39,10,3,36,44,1133,['n'],1,right,['8'],4,100,[-0.07928526],100,44,hard,plus,dotcolour,alfa,,,99,18,V,R,
460,82,40,10,3,33,47,583,['n'],1,right,['8'],4,106,[-0.09814947],100,47,medium,plus,dotcolour,alfa,,,99,18,V,R,
461,83,41,10,3,44,36,884,['n'],0,left,['1'],1,564,[-0.05608478],94,44,hard,plus,dotcolour,alfa,,,99,18,V,R,
462,84,0,11,3,53,27,550,['c'],1,left,['8'],4,87,[0.04292957],99,53,easy,plus,dotcolour,alfa,,,99,18,V,R,
463,85,1,11,3,36,44,750,['n'],1,right,['8'],4,71,[-0.07869572],100,44,hard,plus,dotcolour,alfa,,,99,18,V,R,
464,86,2,11,3,36,44,534,['n'],1,right,['8'],4,129,[-0.11860914],100,44,hard,plus,dotcolour,alfa,,,99,18,V,R,
465,87,3,11,3,44,36,484,['n'],0,left,['8'],4,97,[-0.01894022],90,44,hard,plus,dotcolour,alfa,,,99,18,V,R,
466,88,4,11,3,27,53,550,['n'],1,right,['8'],4,113,[-0.07061788],100,53,easy,plus,dotcolour,alfa,,,99,18,V,R,
467,89,5,11,3,33,47,500,['n'],1,right,['8'],4,105,[-0.13913374],100,47,medium,plus,dotcolour,alfa,,,99,18,V,R,
468,90,6,11,3,27,53,450,['n'],1,right,['8'],4,172,[-0.09826549],100,53,easy,plus,dotcolour,alfa,,,99,18,V,R,
469,91,7,11,3,47,33,700,['c'],1,left,['8'],4,339,[0.10487532],100,47,medium,plus,dotcolour,alfa,,,99,18,V,R,
470,92,8,11,3,47,33,683,['c'],1,left,['8'],4,75,[0.1240133],100,47,medium,plus,dotcolour,alfa,,,99,18,V,R,
471,93,9,11,3,36,44,666,['c'],0,right,['3'],3,1200,[-0.13263425],1,44,hard,plus,dotcolour,alfa,,,99,18,V,R,
472,94,10,11,3,33,47,600,['n'],1,right,['8'],4,87,[-0.12741583],100,47,medium,plus,dotcolour,alfa,,,99,18,V,R,
473,95,11,11,3,47,33,733,['c'],1,left,['8'],4,97,[0.08755341],100,47,medium,plus,dotcolour,alfa,,,99,18,V,R,
474,96,12,11,3,36,44,584,['n'],1,right,['8'],4,70,[-0.05709643],100,44,hard,plus,dotcolour,alfa,,,99,18,V,R,
475,97,13,11,3,44,36,584,['c'],1,left,['8'],4,109,[0.11153951],100,44,hard,plus,dotcolour,alfa,,,99,18,V,R,
476,98,14,11,3,33,47,600,['n'],1,right,['8'],4,106,[-0.05758977],100,47,medium,plus,dotcolour,alfa,,,99,18,V,R,
477,99,15,11,3,44,36,417,['c'],1,left,['8'],4,95,[0.12075291],100,44,hard,plus,dotcolour,alfa,,,99,18,V,R,
478,100,16,11,3,44,36,667,['c'],1,left,['8'],4,58,[0.09298719],100,44,hard,plus,dotcolour,alfa,,,99,18,V,R,
479,101,17,11,3,36,44,550,['n'],1,right,['8'],4,130,[-0.0990423],100,44,hard,plus,dotcolour,alfa,,,99,18,V,R,
480,102,18,11,3,27,53,584,['n'],1,right,['8'],4,103,[-0.05662177],100,53,easy,plus,dotcolour,alfa,,,99,18,V,R,
481,103,19,11,3,27,53,483,['c'],0,right,['3'],3,1177,[-0.18681043],0,53,easy,plus,dotcolour,alfa,,,99,18,V,R,
482,104,20,11,3,27,53,634,['n'],1,right,['8'],4,58,[-0.02815937],99,53,easy,plus,dotcolour,alfa,,,99,18,V,R,
483,105,21,11,3,33,47,934,['n'],1,right,['8'],4,107,[-0.02247815],92,47,medium,plus,dotcolour,alfa,,,99,18,V,R,
484,106,22,11,3,33,47,1067,['c'],0,right,['8'],4,125,[0.09941724],100,47,medium,plus,dotcolour,alfa,,,99,18,V,R,
485,107,23,11,3,53,27,717,['c'],1,left,['8'],4,100,[0.09385514],100,53,easy,plus,dotcolour,alfa,,,99,18,V,R,
486,108,24,11,3,53,27,600,['c'],1,left,['8'],4,66,[0.04907694],100,53,easy,plus,dotcolour,alfa,,,99,18,V,R,
487,109,25,11,3,53,27,384,['c'],1,left,['9'],5,57,[0.10269365],100,53,easy,plus,dotcolour,alfa,,,99,18,V,R,
488,110,26,11,3,27,53,517,['n'],1,right,['8'],4,60,[-0.10234569],100,53,easy,plus,dotcolour,alfa,,,99,18,V,R,
489,111,27,11,3,47,33,667,['n'],0,left,['8'],4,103,[-0.0400771],99,47,medium,plus,dotcolour,alfa,,,99,18,V,R,
490,112,28,11,3,36,44,1617,['c'],0,right,['8'],4,341,[0.04073065],92,44,hard,plus,dotcolour,alfa,,,99,18,V,R,
491,113,29,11,3,53,27,783,['c'],1,left,['8'],4,128,[0.10057438],100,53,easy,plus,dotcolour,alfa,,,99,18,V,R,
492,114,30,11,3,53,27,484,['c'],1,left,['8'],4,57,[0.08421914],100,53,easy,plus,dotcolour,alfa,,,99,18,V,R,
493,115,31,11,3,27,53,550,['n'],1,right,['8'],4,34,[-0.08484032],100,53,easy,plus,dotcolour,alfa,,,99,18,V,R,
494,116,32,11,3,47,33,716,['c'],1,left,['8'],4,86,[0.04041267],99,47,medium,plus,dotcolour,alfa,,,99,18,V,R,
495,117,33,11,3,36,44,883,['n'],1,right,['8'],4,112,[-0.10834697],100,44,hard,plus,dotcolour,alfa,,,99,18,V,R,
496,118,34,11,3,47,33,766,['c'],1,left,['3'],3,711,[0.04439837],87,47,medium,plus,dotcolour,alfa,,,99,18,V,R,
497,119,35,11,3,53,27,701,['c'],1,left,['8'],4,71,[0.08455588],100,53,easy,plus,dotcolour,alfa,,,99,18,V,R,
498,120,36,11,3,44,36,766,['c'],1,left,['8'],4,103,[0.08529109],100,44,hard,plus,dotcolour,alfa,,,99,18,V,R,
499,121,37,11,3,47,33,519,['c'],1,left,['8'],4,96,[0.1466979],100,47,medium,plus,dotcolour,alfa,,,99,18,V,R,
500,122,38,11,3,33,47,483,['c'],0,right,['2'],2,626,[-0.06515804],5,47,medium,plus,dotcolour,alfa,,,99,18,V,R,
501,123,39,11,3,44,36,966,['c'],1,left,['8'],4,59,[0.05284409],100,44,hard,plus,dotcolour,alfa,,,99,18,V,R,
502,124,40,11,3,44,36,500,['c'],1,left,['8'],4,85,[0.08394931],100,44,hard,plus,dotcolour,alfa,,,99,18,V,R,
503,125,41,11,3,33,47,534,['n'],1,right,['8'],4,126,[-0.10855237],100,47,medium,plus,dotcolour,alfa,,,99,18,V,R,
504,0,0,12,4,47,33,867,['c'],1,left,['8'],4,79,[0.05829737],87,47,medium,minus,dotcolour,alfa,,,99,18,V,R,
505,1,1,12,4,53,27,584,['c'],1,left,['8'],4,70,[0.08567234],95,53,easy,minus,dotcolour,alfa,,,99,18,V,R,
506,2,2,12,4,44,36,483,['c'],1,left,['8'],4,112,[0.08036131],90,44,hard,minus,dotcolour,alfa,,,99,18,V,R,
507,3,3,12,4,44,36,1533,['c'],1,left,['8'],4,136,[0.08750006],89,44,hard,minus,dotcolour,alfa,,,99,18,V,R,
508,4,4,12,4,36,44,1134,['n'],1,right,['8'],4,55,[-0.0799467],96,44,hard,minus,dotcolour,alfa,,,99,18,V,R,
509,5,5,12,4,27,53,600,['n'],1,right,['8'],4,62,[-0.06737176],92,53,easy,minus,dotcolour,alfa,,,99,18,V,R,
510,6,6,12,4,33,47,567,['n'],1,right,['8'],4,87,[-0.08720216],93,47,medium,minus,dotcolour,alfa,,,99,18,V,R,
511,7,7,12,4,53,27,584,['c'],1,left,['8'],4,69,[0.11436804],98,53,easy,minus,dotcolour,alfa,,,99,18,V,R,
512,8,8,12,4,47,33,701,['c'],1,left,['8'],4,56,[0.05763454],90,47,medium,minus,dotcolour,alfa,,,99,18,V,R,
513,9,9,12,4,33,47,534,['n'],1,right,['8'],4,106,[-0.04985333],80,47,medium,minus,dotcolour,alfa,,,99,18,V,R,
514,10,10,12,4,36,44,1167,['c'],0,right,['3'],3,584,[0.05635213],66,44,hard,minus,dotcolour,alfa,,,99,18,V,R,
515,11,11,12,4,53,27,650,['c'],1,left,['8'],4,72,[0.08401155],94,53,easy,minus,dotcolour,alfa,,,99,18,V,R,
516,12,12,12,4,33,47,634,['n'],1,right,['8'],4,117,[-0.0742775],88,47,medium,minus,dotcolour,alfa,,,99,18,V,R,
517,13,13,12,4,47,33,934,['c'],1,left,['8'],4,245,[0.08010295],81,47,medium,minus,dotcolour,alfa,,,99,18,V,R,
518,14,14,12,4,36,44,600,['n'],1,right,['8'],4,92,[-0.08156619],92,44,hard,minus,dotcolour,alfa,,,99,18,V,R,
519,15,15,12,4,47,33,683,['c'],1,left,['8'],4,86,[0.04812126],81,47,medium,minus,dotcolour,alfa,,,99,18,V,R,
520,16,16,12,4,27,53,667,['n'],1,right,['8'],4,42,[-0.11162926],99,53,easy,minus,dotcolour,alfa,,,99,18,V,R,
521,17,17,12,4,47,33,767,['n'],0,left,['8'],4,19,[-0.08016648],99,47,medium,minus,dotcolour,alfa,,,99,18,V,R,
522,18,18,12,4,44,36,850,['c'],1,left,['8'],4,89,[0.09584003],95,44,hard,minus,dotcolour,alfa,,,99,18,V,R,
523,19,19,12,4,33,47,734,['c'],0,right,['2'],2,538,[0.07356559],71,47,medium,minus,dotcolour,alfa,,,99,18,V,R,
524,20,20,12,4,53,27,817,['c'],1,left,['8'],4,93,[0.07107532],89,53,easy,minus,dotcolour,alfa,,,99,18,V,R,
525,21,21,12,4,47,33,567,['c'],1,left,['8'],4,75,[0.06276163],89,47,medium,minus,dotcolour,alfa,,,99,18,V,R,
526,22,22,12,4,53,27,1085,['c'],1,left,['8'],4,86,[0.07088961],90,53,easy,minus,dotcolour,alfa,,,99,18,V,R,
527,23,23,12,4,53,27,516,['c'],1,left,['8'],4,87,[0.04485459],80,53,easy,minus,dotcolour,alfa,,,99,18,V,R,
528,24,24,12,4,27,53,567,['n'],1,right,['8'],4,63,[-0.04319516],82,53,easy,minus,dotcolour,alfa,,,99,18,V,R,
529,25,25,12,4,44,36,684,['c'],1,left,['8'],4,50,[0.10553775],99,44,hard,minus,dotcolour,alfa,,,99,18,V,R,
530,26,26,12,4,33,47,1100,['n'],1,right,['8'],4,69,[-0.0176488],65,47,medium,minus,dotcolour,alfa,,,99,18,V,R,
531,27,27,12,4,33,47,533,['n'],1,right,['8'],4,103,[-0.1440212],98,47,medium,minus,dotcolour,alfa,,,99,18,V,R,
532,28,28,12,4,36,44,534,['n'],1,right,['1'],1,623,[-0.05747795],66,44,hard,minus,dotcolour,alfa,,,99,18,V,R,
533,29,29,12,4,44,36,1200,['c'],1,left,['8'],4,63,[0.08634212],96,44,hard,minus,dotcolour,alfa,,,99,18,V,R,
534,30,30,12,4,36,44,566,['n'],1,right,['8'],4,47,[-0.06784187],94,44,hard,minus,dotcolour,alfa,,,99,18,V,R,
535,31,31,12,4,44,36,684,['c'],1,left,['8'],4,106,[0.10594879],95,44,hard,minus,dotcolour,alfa,,,99,18,V,R,
536,32,32,12,4,44,36,883,['c'],1,left,['8'],4,85,[0.1135235],97,44,hard,minus,dotcolour,alfa,,,99,18,V,R,
537,33,33,12,4,27,53,483,['n'],1,right,['8'],4,63,[-0.0887995],96,53,easy,minus,dotcolour,alfa,,,99,18,V,R,
538,34,34,12,4,47,33,584,['c'],1,left,['9'],5,119,[0.10295319],94,47,medium,minus,dotcolour,alfa,,,99,18,V,R,
539,35,35,12,4,33,47,1017,['n'],1,right,['8'],4,51,[-0.03362715],79,47,medium,minus,dotcolour,alfa,,,99,18,V,R,
540,36,36,12,4,53,27,517,['c'],1,left,['9'],5,133,[0.1098587],94,53,easy,minus,dotcolour,alfa,,,99,18,V,R,
541,37,37,12,4,36,44,717,['c'],0,right,['8'],4,101,[0.07222783],89,44,hard,minus,dotcolour,alfa,,,99,18,V,R,
542,38,38,12,4,27,53,650,['n'],1,right,['9'],5,160,[-0.05839574],79,53,easy,minus,dotcolour,alfa,,,99,18,V,R,
543,39,39,12,4,27,53,517,['n'],1,right,['9'],5,118,[-0.16682652],99,53,easy,minus,dotcolour,alfa,,,99,18,V,R,
544,40,40,12,4,27,53,700,['n'],1,right,['9'],5,175,[-0.0644394],80,53,easy,minus,dotcolour,alfa,,,99,18,V,R,
545,41,41,12,4,36,44,867,['c'],0,right,['8'],4,78,[0.06283021],88,44,hard,minus,dotcolour,alfa,,,99,18,V,R,
546,42,0,13,4,53,27,600,['c'],1,left,['8'],4,72,[0.11803086],98,53,easy,minus,dotcolour,alfa,,,99,18,V,R,
547,43,1,13,4,47,33,701,['c'],1,left,['8'],4,82,[0.04290683],79,47,medium,minus,dotcolour,alfa,,,99,18,V,R,
548,44,2,13,4,47,33,633,['c'],1,left,['8'],4,63,[0.05540174],88,47,medium,minus,dotcolour,alfa,,,99,18,V,R,
549,45,3,13,4,53,27,434,['c'],1,left,['8'],4,36,[0.07418707],97,53,easy,minus,dotcolour,alfa,,,99,18,V,R,
550,46,4,13,4,33,47,501,['c'],0,right,['1'],1,528,[0.08105917],73,47,medium,minus,dotcolour,alfa,,,99,18,V,R,
551,47,5,13,4,33,47,767,['n'],1,right,['8'],4,55,[-0.10430801],98,47,medium,minus,dotcolour,alfa,,,99,18,V,R,
552,48,6,13,4,44,36,717,['c'],1,left,['8'],4,96,[0.08425449],92,44,hard,minus,dotcolour,alfa,,,99,18,V,R,
553,49,7,13,4,27,53,552,['c'],0,right,['1'],1,537,[0.09740886],77,53,easy,minus,dotcolour,alfa,,,99,18,V,R,
554,50,8,13,4,44,36,916,['c'],1,left,['8'],4,119,[0.07659568],88,44,hard,minus,dotcolour,alfa,,,99,18,V,R,
555,51,9,13,4,47,33,967,['c'],1,left,['8'],4,69,[0.1116657],98,47,medium,minus,dotcolour,alfa,,,99,18,V,R,
556,52,10,13,4,53,27,600,['c'],1,left,['8'],4,100,[0.0990455],94,53,easy,minus,dotcolour,alfa,,,99,18,V,R,
557,53,11,13,4,44,36,567,['c'],1,left,['8'],4,91,[0.06070885],86,44,hard,minus,dotcolour,alfa,,,99,18,V,R,
558,54,12,13,4,36,44,717,['c'],0,right,['8'],4,51,[0.10908466],99,44,hard,minus,dotcolour,alfa,,,99,18,V,R,
559,55,13,13,4,44,36,734,['c'],1,left,['8'],4,29,[0.06913837],97,44,hard,minus,dotcolour,alfa,,,99,18,V,R,
560,56,14,13,4,47,33,584,['c'],1,left,['8'],4,78,[0.02698241],70,47,medium,minus,dotcolour,alfa,,,99,18,V,R,
561,57,15,13,4,36,44,801,['c'],0,right,['8'],4,692,[0.0310586],58,44,hard,minus,dotcolour,alfa,,,99,18,V,R,
562,58,16,13,4,33,47,1117,['c'],0,right,['1'],1,444,[0.10000613],79,47,medium,minus,dotcolour,alfa,,,99,18,V,R,
563,59,17,13,4,33,47,635,['c'],0,right,['8'],4,75,[0.06424744],89,47,medium,minus,dotcolour,alfa,,,99,18,V,R,
564,60,18,13,4,27,53,683,['n'],1,right,['8'],4,109,[-0.07235601],88,53,easy,minus,dotcolour,alfa,,,99,18,V,R,
565,61,19,13,4,27,53,600,['n'],1,right,['8'],4,91,[-0.07885769],91,53,easy,minus,dotcolour,alfa,,,99,18,V,R,
566,62,20,13,4,47,33,533,['c'],1,left,['8'],4,99,[0.06639779],87,47,medium,minus,dotcolour,alfa,,,99,18,V,R,
567,63,21,13,4,33,47,600,['n'],1,right,['8'],4,40,[-0.08251496],98,47,medium,minus,dotcolour,alfa,,,99,18,V,R,
568,64,22,13,4,36,44,1351,['n'],1,right,['8'],4,105,[-0.08863118],92,44,hard,minus,dotcolour,alfa,,,99,18,V,R,
569,65,23,13,4,47,33,917,['n'],0,left,['8'],4,90,[-0.07716529],91,47,medium,minus,dotcolour,alfa,,,99,18,V,R,
570,66,24,13,4,33,47,684,['c'],0,right,['8'],4,60,[0.06487288],92,47,medium,minus,dotcolour,alfa,,,99,18,V,R,
571,67,25,13,4,36,44,633,['c'],0,right,['8'],4,66,[0.06630486],91,44,hard,minus,dotcolour,alfa,,,99,18,V,R,
572,68,26,13,4,44,36,1384,['n'],0,left,['2'],2,113,[-0.05186096],80,44,hard,minus,dotcolour,alfa,,,99,18,V,R,
573,69,27,13,4,27,53,550,['n'],1,right,['9'],5,135,[-0.05063591],78,53,easy,minus,dotcolour,alfa,,,99,18,V,R,
574,70,28,13,4,47,33,600,['c'],1,left,['9'],5,59,[0.07455241],94,47,medium,minus,dotcolour,alfa,,,99,18,V,R,
575,71,29,13,4,44,36,1366,['c'],1,left,['8'],4,84,[0.05512609],85,44,hard,minus,dotcolour,alfa,,,99,18,V,R,
576,72,30,13,4,44,36,884,['c'],1,left,['8'],4,102,[0.08271601],91,44,hard,minus,dotcolour,alfa,,,99,18,V,R,
577,73,31,13,4,36,44,633,['n'],1,right,['8'],4,26,[-0.07234443],98,44,hard,minus,dotcolour,alfa,,,99,18,V,R,
578,74,32,13,4,36,44,1001,['c'],0,right,['8'],4,91,[0.04033426],77,44,hard,minus,dotcolour,alfa,,,99,18,V,R,
579,75,33,13,4,27,53,667,['n'],1,right,['9'],5,77,[-0.06351849],89,53,easy,minus,dotcolour,alfa,,,99,18,V,R,
580,76,34,13,4,33,47,700,['n'],1,right,['9'],5,111,[-0.12525648],97,47,medium,minus,dotcolour,alfa,,,99,18,V,R,
581,77,35,13,4,53,27,751,['c'],1,left,['8'],4,102,[0.11989622],97,53,easy,minus,dotcolour,alfa,,,99,18,V,R,
582,78,36,13,4,27,53,634,['n'],1,right,['9'],5,97,[-0.1075596],96,53,easy,minus,dotcolour,alfa,,,99,18,V,R,
583,79,37,13,4,53,27,634,['c'],1,left,['8'],4,110,[0.08701565],91,53,easy,minus,dotcolour,alfa,,,99,18,V,R,
584,80,38,13,4,27,53,551,['n'],1,right,['9'],5,92,[-0.02845307],70,53,easy,minus,dotcolour,alfa,,,99,18,V,R,
585,81,39,13,4,36,44,583,['n'],1,right,['9'],5,122,[-0.10260787],93,44,hard,minus,dotcolour,alfa,,,99,18,V,R,
586,82,40,13,4,53,27,634,['c'],1,left,['9'],5,78,[0.09394767],95,53,easy,minus,dotcolour,alfa,,,99,18,V,R,
587,83,41,13,4,53,27,534,['c'],1,left,['9'],5,95,[0.03167259],72,53,easy,minus,dotcolour,alfa,,,99,18,V,R,
588,84,0,14,4,27,53,1084,['n'],1,right,['8'],4,91,[-0.07949372],91,53,easy,minus,dotcolour,alfa,,,99,18,V,R,
589,85,1,14,4,53,27,1084,['c'],1,left,['9'],5,141,[0.03396168],69,53,easy,minus,dotcolour,alfa,,,99,18,V,R,
590,86,2,14,4,36,44,1350,['c'],0,right,['8'],4,130,[0.07908177],88,44,hard,minus,dotcolour,alfa,,,99,18,V,R,
591,87,3,14,4,27,53,567,['n'],1,right,['8'],4,87,[-0.03491914],74,53,easy,minus,dotcolour,alfa,,,99,18,V,R,
592,88,4,14,4,27,53,700,['c'],0,right,['8'],4,81,[0.07469919],91,53,easy,minus,dotcolour,alfa,,,99,18,V,R,
593,89,5,14,4,47,33,1316,['c'],1,left,['8'],4,66,[0.08646989],95,47,medium,minus,dotcolour,alfa,,,99,18,V,R,
594,90,6,14,4,36,44,533,['n'],1,right,['8'],4,316,[-0.12315969],88,44,hard,minus,dotcolour,alfa,,,99,18,V,R,
595,91,7,14,4,33,47,517,['n'],1,right,['8'],4,116,[-0.06516753],85,47,medium,minus,dotcolour,alfa,,,99,18,V,R,
596,92,8,14,4,47,33,566,['c'],1,left,['8'],4,82,[0.09882559],96,47,medium,minus,dotcolour,alfa,,,99,18,V,R,
597,93,9,14,4,53,27,683,['c'],1,left,['8'],4,109,[0.04181236],76,53,easy,minus,dotcolour,alfa,,,99,18,V,R,
598,94,10,14,4,47,33,633,['c'],1,left,['8'],4,56,[0.06713546],93,47,medium,minus,dotcolour,alfa,,,99,18,V,R,
599,95,11,14,4,44,36,1084,['c'],1,left,['8'],4,84,[0.02280326],67,44,hard,minus,dotcolour,alfa,,,99,18,V,R,
600,96,12,14,4,36,44,683,['n'],1,right,['8'],4,79,[-0.08902232],95,44,hard,minus,dotcolour,alfa,,,99,18,V,R,
601,97,13,14,4,36,44,799,['n'],1,right,['8'],4,61,[-0.04409057],83,44,hard,minus,dotcolour,alfa,,,99,18,V,R,
602,98,14,14,4,47,33,534,['c'],1,left,['8'],4,86,[0.07508802],91,47,medium,minus,dotcolour,alfa,,,99,18,V,R,
603,99,15,14,4,53,27,650,['c'],1,left,['8'],4,82,[0.04814647],82,53,easy,minus,dotcolour,alfa,,,99,18,V,R,
604,100,16,14,4,36,44,616,['c'],0,right,['8'],4,96,[0.07853151],91,44,hard,minus,dotcolour,alfa,,,99,18,V,R,
605,101,17,14,4,44,36,1250,['c'],1,left,['8'],4,83,[0.1072766],97,44,hard,minus,dotcolour,alfa,,,99,18,V,R,
606,102,18,14,4,47,33,516,['c'],1,left,['8'],4,76,[0.03687413],77,47,medium,minus,dotcolour,alfa,,,99,18,V,R,
607,103,19,14,4,53,27,467,['c'],1,left,['8'],4,39,[0.05274801],92,53,easy,minus,dotcolour,alfa,,,99,18,V,R,
608,104,20,14,4,53,27,451,['c'],1,left,['8'],4,61,[0.11550463],99,53,easy,minus,dotcolour,alfa,,,99,18,V,R,
609,105,21,14,4,53,27,450,['c'],1,left,['8'],4,67,[0.13473609],99,53,easy,minus,dotcolour,alfa,,,99,18,V,R,
610,106,22,14,4,36,44,934,['c'],0,right,['8'],4,68,[0.04115274],81,44,hard,minus,dotcolour,alfa,,,99,18,V,R,
611,107,23,14,4,44,36,484,['c'],1,left,['8'],4,95,[0.03212635],72,44,hard,minus,dotcolour,alfa,,,99,18,V,R,
612,108,24,14,4,44,36,483,['c'],1,left,['8'],4,25,[0.05462965],96,44,hard,minus,dotcolour,alfa,,,99,18,V,R,
613,109,25,14,4,27,53,483,['n'],1,right,['8'],4,78,[-0.1159103],98,53,easy,minus,dotcolour,alfa,,,99,18,V,R,
614,110,26,14,4,44,36,651,['c'],1,left,['8'],4,82,[0.05270666],84,44,hard,minus,dotcolour,alfa,,,99,18,V,R,
615,111,27,14,4,33,47,617,['n'],1,right,['8'],4,103,[-0.01826993],63,47,medium,minus,dotcolour,alfa,,,99,18,V,R,
616,112,28,14,4,33,47,567,['n'],1,right,['8'],4,102,[-0.12304249],97,47,medium,minus,dotcolour,alfa,,,99,18,V,R,
617,113,29,14,4,27,53,483,['n'],1,right,['9'],5,120,[-0.09455885],92,53,easy,minus,dotcolour,alfa,,,99,18,V,R,
618,114,30,14,4,33,47,766,['c'],0,right,['8'],4,93,[0.08231615],92,47,medium,minus,dotcolour,alfa,,,99,18,V,R,
619,115,31,14,4,33,47,583,['n'],1,right,['8'],4,52,[-0.07981976],96,47,medium,minus,dotcolour,alfa,,,99,18,V,R,
620,116,32,14,4,33,47,632,['n'],1,right,['9'],5,114,[-0.05223457],80,47,medium,minus,dotcolour,alfa,,,99,18,V,R,
621,117,33,14,4,44,36,651,['c'],1,left,['8'],4,93,[0.08493993],92,44,hard,minus,dotcolour,alfa,,,99,18,V,R,
622,118,34,14,4,47,33,900,['c'],1,left,['8'],4,110,[0.04804518],79,47,medium,minus,dotcolour,alfa,,,99,18,V,R,
623,119,35,14,4,27,53,917,['n'],1,right,['8'],4,70,[-0.08970877],95,53,easy,minus,dotcolour,alfa,,,99,18,V,R,
624,120,36,14,4,36,44,700,['n'],1,right,['1'],1,729,[-0.01531381],54,44,hard,minus,dotcolour,alfa,,,99,18,V,R,
625,121,37,14,4,33,47,749,['n'],1,right,['8'],4,47,[-0.09924911],98,47,medium,minus,dotcolour,alfa,,,99,18,V,R,
626,122,38,14,4,53,27,583,['n'],0,left,['1'],1,638,[-0.09985246],75,53,easy,minus,dotcolour,alfa,,,99,18,V,R,
627,123,39,14,4,44,36,1017,['c'],1,left,['8'],4,205,[0.04671412],72,44,hard,minus,dotcolour,alfa,,,99,18,V,R,
628,124,40,14,4,47,33,866,['c'],1,left,['8'],4,132,[0.07590073],87,47,medium,minus,dotcolour,alfa,,,99,18,V,R,
629,125,41,14,4,27,53,717,['n'],1,right,['8'],4,67,[-0.12988697],99,53,easy,minus,dotcolour,alfa,,,99,18,V,R,
630,0,0,15,5,53,27,1067,['c'],1,left,['8'],4,212,[0.07845609],100,53,easy,plus,dotcolour,alfa,,,99,18,V,R,
631,1,1,15,5,33,47,618,['n'],1,right,['9'],5,100,[-0.06212092],100,47,medium,plus,dotcolour,alfa,,,99,18,V,R,
632,2,2,15,5,47,33,1784,['c'],1,left,['8'],4,67,[0.08214146],100,47,medium,plus,dotcolour,alfa,,,99,18,V,R,
633,3,3,15,5,33,47,583,['n'],1,right,['8'],4,82,[-0.09231786],100,47,medium,plus,dotcolour,alfa,,,99,18,V,R,
634,4,4,15,5,27,53,767,['n'],1,right,['8'],4,105,[-0.11433621],100,53,easy,plus,dotcolour,alfa,,,99,18,V,R,
635,5,5,15,5,33,47,550,['n'],1,right,['8'],4,48,[-0.11316271],100,47,medium,plus,dotcolour,alfa,,,99,18,V,R,
636,6,6,15,5,44,36,550,['c'],1,left,['8'],4,89,[0.07823076],100,44,hard,plus,dotcolour,alfa,,,99,18,V,R,
637,7,7,15,5,44,36,717,['c'],1,left,['8'],4,83,[0.1091824],100,44,hard,plus,dotcolour,alfa,,,99,18,V,R,
638,8,8,15,5,27,53,649,['n'],1,right,['8'],4,1999,[-0.23890854],100,53,easy,plus,dotcolour,alfa,,,99,18,V,R,
639,9,9,15,5,27,53,550,['n'],1,right,['8'],4,49,[-0.07343853],100,53,easy,plus,dotcolour,alfa,,,99,18,V,R,
640,10,10,15,5,44,36,616,['c'],1,left,['8'],4,48,[0.08839574],100,44,hard,plus,dotcolour,alfa,,,99,18,V,R,
641,11,11,15,5,47,33,600,['c'],1,left,['8'],4,80,[0.0879186],100,47,medium,plus,dotcolour,alfa,,,99,18,V,R,
642,12,12,15,5,53,27,567,['c'],1,left,['8'],4,55,[0.0486147],100,53,easy,plus,dotcolour,alfa,,,99,18,V,R,
643,13,13,15,5,44,36,501,['c'],1,left,['2'],2,442,[0.11688141],100,44,hard,plus,dotcolour,alfa,,,99,18,V,R,
644,14,14,15,5,33,47,1650,['n'],1,right,['8'],4,128,[-0.06006296],100,47,medium,plus,dotcolour,alfa,,,99,18,V,R,
645,15,15,15,5,53,27,467,['c'],1,left,['8'],4,89,[0.10544802],100,53,easy,plus,dotcolour,alfa,,,99,18,V,R,
646,16,16,15,5,36,44,700,['n'],1,right,['8'],4,43,[-0.09042872],100,44,hard,plus,dotcolour,alfa,,,99,18,V,R,
647,17,17,15,5,33,47,567,['n'],1,right,['8'],4,100,[-0.1048698],100,47,medium,plus,dotcolour,alfa,,,99,18,V,R,
648,18,18,15,5,44,36,650,['c'],1,left,['8'],4,95,[0.11628333],100,44,hard,plus,dotcolour,alfa,,,99,18,V,R,
649,19,19,15,5,53,27,600,['c'],1,left,['8'],4,76,[0.07193671],100,53,easy,plus,dotcolour,alfa,,,99,18,V,R,
650,20,20,15,5,33,47,749,['n'],1,right,['8'],4,28,[-0.07751113],100,47,medium,plus,dotcolour,alfa,,,99,18,V,R,
651,21,21,15,5,27,53,617,['n'],1,right,['8'],4,84,[-0.08188311],100,53,easy,plus,dotcolour,alfa,,,99,18,V,R,
652,22,22,15,5,47,33,683,['c'],1,left,['8'],4,71,[0.10071665],100,47,medium,plus,dotcolour,alfa,,,99,18,V,R,
653,23,23,15,5,47,33,833,['c'],1,left,['8'],4,60,[0.04934278],100,47,medium,plus,dotcolour,alfa,,,99,18,V,R,
654,24,24,15,5,53,27,533,['c'],1,left,['8'],4,85,[0.13056593],100,53,easy,plus,dotcolour,alfa,,,99,18,V,R,
655,25,25,15,5,53,27,483,['c'],1,left,['8'],4,48,[0.09813366],100,53,easy,plus,dotcolour,alfa,,,99,18,V,R,
656,26,26,15,5,36,44,651,['n'],1,right,['8'],4,93,[-0.0428346],99,44,hard,plus,dotcolour,alfa,,,99,18,V,R,
657,27,27,15,5,53,27,584,['c'],1,left,['8'],4,187,[0.16368838],100,53,easy,plus,dotcolour,alfa,,,99,18,V,R,
658,28,28,15,5,36,44,818,['n'],1,right,['8'],4,60,[-0.06757551],100,44,hard,plus,dotcolour,alfa,,,99,18,V,R,
659,29,29,15,5,47,33,816,['c'],1,left,['8'],4,99,[0.09478333],100,47,medium,plus,dotcolour,alfa,,,99,18,V,R,
660,30,30,15,5,44,36,984,['n'],0,left,['8'],4,112,[-0.09259568],100,44,hard,plus,dotcolour,alfa,,,99,18,V,R,
661,31,31,15,5,36,44,667,['c'],0,right,['8'],4,98,[0.07650226],100,44,hard,plus,dotcolour,alfa,,,99,18,V,R,
662,32,32,15,5,47,33,633,['c'],1,left,['8'],4,71,[0.1048767],100,47,medium,plus,dotcolour,alfa,,,99,18,V,R,
663,33,33,15,5,27,53,516,['n'],1,right,['8'],4,41,[-0.07654568],100,53,easy,plus,dotcolour,alfa,,,99,18,V,R,
664,34,34,15,5,33,47,1000,['n'],1,right,['9'],5,48,[-0.12745232],100,47,medium,plus,dotcolour,alfa,,,99,18,V,R,
665,35,35,15,5,36,44,884,['c'],0,right,['8'],4,36,[0.06654468],100,44,hard,plus,dotcolour,alfa,,,99,18,V,R,
666,36,36,15,5,47,33,550,['c'],1,left,['9'],5,134,[0.05350766],99,47,medium,plus,dotcolour,alfa,,,99,18,V,R,
667,37,37,15,5,44,36,683,['c'],1,left,['8'],4,246,[0.09118855],100,44,hard,plus,dotcolour,alfa,,,99,18,V,R,
668,38,38,15,5,27,53,783,['n'],1,right,['9'],5,87,[-0.036778],99,53,easy,plus,dotcolour,alfa,,,99,18,V,R,
669,39,39,15,5,36,44,751,['n'],1,right,['9'],5,127,[-0.03748896],98,44,hard,plus,dotcolour,alfa,,,99,18,V,R,
670,40,40,15,5,27,53,566,['n'],1,right,['9'],5,109,[-0.12435017],100,53,easy,plus,dotcolour,alfa,,,99,18,V,R,
671,41,41,15,5,36,44,1100,['c'],0,right,['8'],4,85,[0.08604846],100,44,hard,plus,dotcolour,alfa,,,99,18,V,R,
672,42,0,16,5,44,36,850,['c'],1,left,['8'],4,99,[0.05583661],100,44,hard,plus,dotcolour,alfa,,,99,18,V,R,
673,43,1,16,5,27,53,617,['n'],1,right,['8'],4,16,[-0.05594312],100,53,easy,plus,dotcolour,alfa,,,99,18,V,R,
674,44,2,16,5,47,33,533,['c'],1,left,['8'],4,100,[0.12529778],100,47,medium,plus,dotcolour,alfa,,,99,18,V,R,
675,45,3,16,5,47,33,567,['c'],1,left,['8'],4,75,[0.07476614],100,47,medium,plus,dotcolour,alfa,,,99,18,V,R,
676,46,4,16,5,44,36,567,['c'],1,left,['8'],4,90,[0.07305823],100,44,hard,plus,dotcolour,alfa,,,99,18,V,R,
677,47,5,16,5,33,47,600,['n'],1,right,['8'],4,95,[-0.07374814],100,47,medium,plus,dotcolour,alfa,,,99,18,V,R,
678,48,6,16,5,33,47,1234,['n'],1,right,['8'],4,28,[-0.06361377],100,47,medium,plus,dotcolour,alfa,,,99,18,V,R,
679,49,7,16,5,33,47,617,['n'],1,right,['8'],4,67,[-0.05276078],100,47,medium,plus,dotcolour,alfa,,,99,18,V,R,
680,50,8,16,5,53,27,484,['c'],1,left,['8'],4,86,[0.06306549],100,53,easy,plus,dotcolour,alfa,,,99,18,V,R,
681,51,9,16,5,53,27,633,['c'],1,left,['8'],4,83,[0.08226757],100,53,easy,plus,dotcolour,alfa,,,99,18,V,R,
682,52,10,16,5,27,53,567,['n'],1,right,['8'],4,82,[-0.10701938],100,53,easy,plus,dotcolour,alfa,,,99,18,V,R,
683,53,11,16,5,44,36,633,['n'],0,left,['8'],4,263,[-0.04294307],95,44,hard,plus,dotcolour,alfa,,,99,18,V,R,
684,54,12,16,5,44,36,866,['c'],1,left,['8'],4,75,[0.09056942],100,44,hard,plus,dotcolour,alfa,,,99,18,V,R,
685,55,13,16,5,44,36,649,['c'],1,left,['8'],4,95,[0.08024308],100,44,hard,plus,dotcolour,alfa,,,99,18,V,R,
686,56,14,16,5,47,33,1251,['n'],0,left,['3'],3,114,[-0.06301199],100,47,medium,plus,dotcolour,alfa,,,99,18,V,R,
687,57,15,16,5,47,33,550,['c'],1,left,['8'],4,97,[0.11634727],100,47,medium,plus,dotcolour,alfa,,,99,18,V,R,
688,58,16,16,5,27,53,583,['n'],1,right,['9'],5,103,[-0.09119541],100,53,easy,plus,dotcolour,alfa,,,99,18,V,R,
689,59,17,16,5,44,36,533,['c'],1,left,['8'],4,439,[0.23573913],100,44,hard,plus,dotcolour,alfa,,,99,18,V,R,
690,60,18,16,5,47,33,2200,['c'],1,left,['8'],4,87,[0.15516619],100,47,medium,plus,dotcolour,alfa,,,99,18,V,R,
691,61,19,16,5,47,33,533,['c'],1,left,['8'],4,63,[0.10524833],100,47,medium,plus,dotcolour,alfa,,,99,18,V,R,
692,62,20,16,5,53,27,534,['c'],1,left,['8'],4,97,[0.04772031],100,53,easy,plus,dotcolour,alfa,,,99,18,V,R,
693,63,21,16,5,53,27,400,['c'],1,left,['8'],4,30,[0.09258142],100,53,easy,plus,dotcolour,alfa,,,99,18,V,R,
694,64,22,16,5,27,53,717,['n'],1,right,['8'],4,809,[-0.16292979],100,53,easy,plus,dotcolour,alfa,,,99,18,V,R,
695,65,23,16,5,27,53,1583,['n'],1,right,['8'],4,491,[-0.13098481],100,53,easy,plus,dotcolour,alfa,,,99,18,V,R,
696,66,24,16,5,33,47,1033,['n'],1,right,['8'],4,46,[-0.07105221],100,47,medium,plus,dotcolour,alfa,,,99,18,V,R,
697,67,25,16,5,53,27,584,['c'],1,left,['8'],4,87,[0.10696635],100,53,easy,plus,dotcolour,alfa,,,99,18,V,R,
698,68,26,16,5,36,44,650,['n'],1,right,['8'],4,91,[-0.07079642],100,44,hard,plus,dotcolour,alfa,,,99,18,V,R,
699,69,27,16,5,36,44,833,['n'],1,right,['8'],4,71,[-0.07569512],100,44,hard,plus,dotcolour,alfa,,,99,18,V,R,
700,70,28,16,5,27,53,634,['n'],1,right,['8'],4,76,[-0.10884774],100,53,easy,plus,dotcolour,alfa,,,99,18,V,R,
701,71,29,16,5,47,33,584,['c'],1,left,['8'],4,59,[0.05957659],100,47,medium,plus,dotcolour,alfa,,,99,18,V,R,
702,72,30,16,5,36,44,583,['n'],1,right,['8'],4,114,[-0.12696476],100,44,hard,plus,dotcolour,alfa,,,99,18,V,R,
703,73,31,16,5,33,47,566,['n'],1,right,['8'],4,32,[-0.08502912],100,47,medium,plus,dotcolour,alfa,,,99,18,V,R,
704,74,32,16,5,53,27,783,['c'],1,left,['8'],4,121,[0.07018699],100,53,easy,plus,dotcolour,alfa,,,99,18,V,R,
705,75,33,16,5,36,44,750,['n'],1,right,['8'],4,103,[-0.06621898],100,44,hard,plus,dotcolour,alfa,,,99,18,V,R,
706,76,34,16,5,33,47,700,['c'],0,right,['8'],4,89,[0.06081457],100,47,medium,plus,dotcolour,alfa,,,99,18,V,R,
707,77,35,16,5,36,44,633,['c'],0,right,['8'],4,86,[0.03644514],99,44,hard,plus,dotcolour,alfa,,,99,18,V,R,
708,78,36,16,5,36,44,700,['n'],1,right,['8'],4,71,[-0.08375834],100,44,hard,plus,dotcolour,alfa,,,99,18,V,R,
709,79,37,16,5,27,53,683,['n'],1,right,['8'],4,115,[-0.05727646],100,53,easy,plus,dotcolour,alfa,,,99,18,V,R,
710,80,38,16,5,36,44,666,['n'],1,right,['8'],4,205,[-0.10297181],100,44,hard,plus,dotcolour,alfa,,,99,18,V,R,
711,81,39,16,5,44,36,783,['c'],1,left,['8'],4,111,[0.12441203],100,44,hard,plus,dotcolour,alfa,,,99,18,V,R,
712,82,40,16,5,53,27,534,['c'],1,left,['8'],4,86,[0.07355946],100,53,easy,plus,dotcolour,alfa,,,99,18,V,R,
713,83,41,16,5,33,47,683,['n'],1,right,['8'],4,73,[-0.0369831],99,47,medium,plus,dotcolour,alfa,,,99,18,V,R,
714,84,0,17,5,33,47,1183,['c'],0,right,['2'],2,182,[0.12259585],100,47,medium,plus,dotcolour,alfa,,,99,18,V,R,
715,85,1,17,5,27,53,466,['n'],1,right,['8'],4,101,[-0.07379972],100,53,easy,plus,dotcolour,alfa,,,99,18,V,R,
716,86,2,17,5,53,27,484,['c'],1,left,['8'],4,71,[0.06250902],100,53,easy,plus,dotcolour,alfa,,,99,18,V,R,
717,87,3,17,5,44,36,567,['c'],1,left,['8'],4,71,[0.07584405],100,44,hard,plus,dotcolour,alfa,,,99,18,V,R,
718,88,4,17,5,47,33,917,['c'],1,left,['8'],4,113,[0.09301396],100,47,medium,plus,dotcolour,alfa,,,99,18,V,R,
719,89,5,17,5,53,27,600,['c'],1,left,['8'],4,70,[0.08946254],100,53,easy,plus,dotcolour,alfa,,,99,18,V,R,
720,90,6,17,5,47,33,500,['c'],1,left,['8'],4,72,[0.074265],100,47,medium,plus,dotcolour,alfa,,,99,18,V,R,
721,91,7,17,5,33,47,634,['n'],1,right,['8'],4,62,[-0.06962672],100,47,medium,plus,dotcolour,alfa,,,99,18,V,R,
722,92,8,17,5,27,53,900,['n'],1,right,['9'],5,192,[-0.13502171],100,53,easy,plus,dotcolour,alfa,,,99,18,V,R,
723,93,9,17,5,36,44,767,['c'],0,right,['8'],4,99,[0.08092393],100,44,hard,plus,dotcolour,alfa,,,99,18,V,R,
724,94,10,17,5,44,36,567,['c'],1,left,['8'],4,82,[0.06025949],100,44,hard,plus,dotcolour,alfa,,,99,18,V,R,
725,95,11,17,5,53,27,533,['c'],1,left,['8'],4,91,[0.09442546],100,53,easy,plus,dotcolour,alfa,,,99,18,V,R,
726,96,12,17,5,44,36,867,['n'],0,left,['8'],4,54,[-0.0393247],100,44,hard,plus,dotcolour,alfa,,,99,18,V,R,
727,97,13,17,5,47,33,867,['n'],0,left,['8'],4,106,[-0.07037537],100,47,medium,plus,dotcolour,alfa,,,99,18,V,R,
728,98,14,17,5,33,47,850,['n'],1,right,['9'],5,141,[-0.07746705],100,47,medium,plus,dotcolour,alfa,,,99,18,V,R,
729,99,15,17,5,53,27,684,['c'],1,left,['8'],4,86,[0.02953715],97,53,easy,plus,dotcolour,alfa,,,99,18,V,R,
730,100,16,17,5,47,33,451,['c'],1,left,['8'],4,105,[0.14092361],100,47,medium,plus,dotcolour,alfa,,,99,18,V,R,
731,101,17,17,5,47,33,650,['c'],1,left,['8'],4,109,[0.12937627],100,47,medium,plus,dotcolour,alfa,,,99,18,V,R,
732,102,18,17,5,33,47,900,['c'],0,right,['8'],4,325,[0.0709333],99,47,medium,plus,dotcolour,alfa,,,99,18,V,R,
733,103,19,17,5,47,33,850,['n'],0,left,['8'],4,72,[-0.09270716],100,47,medium,plus,dotcolour,alfa,,,99,18,V,R,
734,104,20,17,5,33,47,450,['n'],1,right,['8'],4,108,[-0.11773735],100,47,medium,plus,dotcolour,alfa,,,99,18,V,R,
735,105,21,17,5,27,53,600,['n'],1,right,['8'],4,161,[-0.12822453],100,53,easy,plus,dotcolour,alfa,,,99,18,V,R,
736,106,22,17,5,53,27,567,['c'],1,left,['8'],4,93,[0.10069127],100,53,easy,plus,dotcolour,alfa,,,99,18,V,R,
737,107,23,17,5,27,53,550,['n'],1,right,['8'],4,84,[-0.12486536],100,53,easy,plus,dotcolour,alfa,,,99,18,V,R,
738,108,24,17,5,36,44,616,['c'],0,right,['8'],4,169,[0.04029784],97,44,hard,plus,dotcolour,alfa,,,99,18,V,R,
739,109,25,17,5,53,27,617,['c'],1,left,['9'],5,164,[0.13410202],100,53,easy,plus,dotcolour,alfa,,,99,18,V,R,
740,110,26,17,5,27,53,434,['c'],0,right,['1'],1,597,[0.03534443],84,53,easy,plus,dotcolour,alfa,,,99,18,V,R,
741,111,27,17,5,33,47,850,['n'],1,right,['9'],5,116,[-0.1210682],100,47,medium,plus,dotcolour,alfa,,,99,18,V,R,
742,112,28,17,5,33,47,749,['c'],0,right,['8'],4,91,[0.04917909],100,47,medium,plus,dotcolour,alfa,,,99,18,V,R,
743,113,29,17,5,36,44,832,['c'],0,right,['1'],1,800,[0.03567458],81,44,hard,plus,dotcolour,alfa,,,99,18,V,R,
744,114,30,17,5,44,36,800,['n'],0,left,['9'],5,56,[-0.10872032],100,44,hard,plus,dotcolour,alfa,,,99,18,V,R,
745,115,31,17,5,36,44,667,['n'],1,right,['9'],5,109,[-0.09168032],100,44,hard,plus,dotcolour,alfa,,,99,18,V,R,
746,116,32,17,5,44,36,716,['c'],1,left,['8'],4,85,[0.05654446],100,44,hard,plus,dotcolour,alfa,,,99,18,V,R,
747,117,33,17,5,27,53,651,['n'],1,right,['8'],4,49,[-0.0912056],100,53,easy,plus,dotcolour,alfa,,,99,18,V,R,
748,118,34,17,5,36,44,817,['c'],0,right,['8'],4,96,[0.06927889],100,44,hard,plus,dotcolour,alfa,,,99,18,V,R,
749,119,35,17,5,36,44,567,['n'],1,right,['8'],4,110,[-0.09823395],100,44,hard,plus,dotcolour,alfa,,,99,18,V,R,
750,120,36,17,5,27,53,700,['n'],1,right,['8'],4,95,[-0.04515234],99,53,easy,plus,dotcolour,alfa,,,99,18,V,R,
751,121,37,17,5,44,36,717,['c'],1,left,['8'],4,81,[0.0839184],100,44,hard,plus,dotcolour,alfa,,,99,18,V,R,
752,122,38,17,5,53,27,966,['c'],1,left,['9'],5,95,[0.16208628],100,53,easy,plus,dotcolour,alfa,,,99,18,V,R,
753,123,39,17,5,44,36,584,['c'],1,left,['9'],5,101,[0.06600199],100,44,hard,plus,dotcolour,alfa,,,99,18,V,R,
754,124,40,17,5,47,33,851,['c'],1,left,['8'],4,81,[0.04314926],100,47,medium,plus,dotcolour,alfa,,,99,18,V,R,
755,125,41,17,5,36,44,883,['n'],1,right,['8'],4,43,[-0.12892021],100,44,hard,plus,dotcolour,alfa,,,99,18,V,R,
,,,,,,,,,,,,,,,,,,,,,1,"soms dacht ik echt dat ik het fout had en gaf de feedback aan dat het juist was
",99,18,V,R,
,,,,,,,,,,,,,,,,,,,,,2,['f'],99,18,V,R,
,,,,,,,,,,,,,,,,,,,,,3,['g'],99,18,V,R,
,,,,,,,,,,,,,,,,,,,,,5,['3'],99,18,V,R,
