trial,withinphasetrial,withinblocktrial,block,phase,dotsLeft,dotsRight,rt,resp,cor,cresp,conf_press,cj,RTconf,ev,fb,diff,difflevel,condition,task,manip,questionID,questionResp,sub,age,gender,handedness,
0,0,0,0,0,33,47,4384,['n'],1,right,['2'],5,3801,[-0.32392407],100,47,medium,plus,dotcolour,alfa,,,100,18,V,R,
1,1,1,0,0,36,44,4233,['c'],0,right,['3'],4,1767,[-0.01508613],40,44,hard,plus,dotcolour,alfa,,,100,18,V,R,
2,2,2,0,0,47,33,1450,['c'],1,left,['3'],4,3079,[0.45692035],100,47,medium,plus,dotcolour,alfa,,,100,18,V,R,
3,3,3,0,0,27,53,3034,['n'],1,right,['3'],4,3442,[-0.09924531],87,53,easy,plus,dotcolour,alfa,,,100,18,V,R,
4,4,4,0,0,36,44,2100,['n'],1,right,['8'],3,2366,[-0.04388832],74,44,hard,plus,dotcolour,alfa,,,100,18,V,R,
5,5,5,0,0,53,27,1134,['c'],1,left,['2'],5,2226,[0.32783219],100,53,easy,plus,dotcolour,alfa,,,100,18,V,R,
6,6,6,0,0,53,27,1234,['c'],1,left,['3'],4,1656,[0.3864475],100,53,easy,plus,dotcolour,alfa,,,100,18,V,R,
7,7,7,0,0,33,47,1166,['n'],1,right,['2'],5,1112,[-0.32641612],100,47,medium,plus,dotcolour,alfa,,,100,18,V,R,
8,8,8,0,0,27,53,1967,['n'],1,right,['1'],6,1390,[-0.42427627],100,53,easy,plus,dotcolour,alfa,,,100,18,V,R,
9,9,9,0,0,44,36,1667,['n'],0,left,['9'],2,2517,[0.13501391],4,44,hard,plus,dotcolour,alfa,,,100,18,V,R,
10,10,10,0,0,53,27,1317,['c'],1,left,['3'],4,2412,[0.41741823],100,53,easy,plus,dotcolour,alfa,,,100,18,V,R,
11,11,11,0,0,33,47,834,['n'],1,right,['3'],4,619,[-0.11781283],100,47,medium,plus,dotcolour,alfa,,,100,18,V,R,
12,12,12,0,0,53,27,900,['c'],1,left,['1'],6,1279,[0.23049631],100,53,easy,plus,dotcolour,alfa,,,100,18,V,R,
13,13,13,0,0,44,36,2100,['n'],0,left,['3'],4,1809,[0.21939578],0,44,hard,plus,dotcolour,alfa,,,100,18,V,R,
14,14,14,0,0,33,47,4452,['n'],1,right,['8'],3,1432,[-0.231009],100,47,medium,plus,dotcolour,alfa,,,100,18,V,R,
15,15,15,0,0,44,36,967,['c'],1,left,['3'],4,920,[0.23000609],100,44,hard,plus,dotcolour,alfa,,,100,18,V,R,
16,16,16,0,0,44,36,1317,['c'],1,left,['3'],4,808,[0.10606486],99,44,hard,plus,dotcolour,alfa,,,100,18,V,R,
17,17,17,0,0,53,27,850,['c'],1,left,['3'],4,1006,[0.3262114],100,53,easy,plus,dotcolour,alfa,,,100,18,V,R,
18,18,18,0,0,47,33,1450,['c'],1,left,['3'],4,917,[0.10589765],98,47,medium,plus,dotcolour,alfa,,,100,18,V,R,
19,19,19,0,0,47,33,1633,['c'],1,left,['3'],4,2288,[0.38585177],100,47,medium,plus,dotcolour,alfa,,,100,18,V,R,
20,20,20,0,0,47,33,1716,['n'],0,left,['3'],4,865,[0.15395473],0,47,medium,plus,dotcolour,alfa,,,100,18,V,R,
21,21,21,0,0,27,53,1250,['c'],0,right,['3'],4,486,[0.01120089],64,53,easy,plus,dotcolour,alfa,,,100,18,V,R,
22,22,22,0,0,36,44,716,['c'],0,right,['3'],4,679,[0.02881032],78,44,hard,plus,dotcolour,alfa,,,100,18,V,R,
23,23,23,0,0,47,33,1451,['c'],1,left,['2'],5,699,[0.084675],97,47,medium,plus,dotcolour,alfa,,,100,18,V,R,
24,24,24,0,0,27,53,1017,['n'],1,right,['2'],5,1335,[-0.20578719],100,53,easy,plus,dotcolour,alfa,,,100,18,V,R,
25,25,25,0,0,27,53,717,['n'],1,right,['1'],6,815,[-0.26538426],100,53,easy,plus,dotcolour,alfa,,,100,18,V,R,
26,26,26,0,0,27,53,1367,['n'],1,right,['1'],6,656,[-0.15511396],100,53,easy,plus,dotcolour,alfa,,,100,18,V,R,
27,27,27,0,0,36,44,1000,['n'],1,right,['1'],6,399,[0.02152694],23,44,hard,plus,dotcolour,alfa,,,100,18,V,R,
28,28,28,0,0,36,44,1516,['n'],1,right,['2'],5,1083,[0.08552794],5,44,hard,plus,dotcolour,alfa,,,100,18,V,R,
29,29,29,0,0,53,27,1050,['c'],1,left,['1'],6,1039,[0.23376416],100,53,easy,plus,dotcolour,alfa,,,100,18,V,R,
30,30,30,0,0,44,36,1399,['c'],1,left,['3'],4,895,[0.18192208],100,44,hard,plus,dotcolour,alfa,,,100,18,V,R,
31,31,31,0,0,33,47,900,['n'],1,right,['3'],4,679,[-0.0682411],95,47,medium,plus,dotcolour,alfa,,,100,18,V,R,
32,32,32,0,0,33,47,1350,['n'],1,right,['3'],4,312,[-0.13107677],100,47,medium,plus,dotcolour,alfa,,,100,18,V,R,
33,33,33,0,0,47,33,2017,['c'],1,left,['3'],4,972,[0.26851011],100,47,medium,plus,dotcolour,alfa,,,100,18,V,R,
34,34,34,0,0,33,47,684,['n'],1,right,['3'],4,362,[-0.03930756],91,47,medium,plus,dotcolour,alfa,,,100,18,V,R,
35,35,35,0,0,53,27,750,['c'],1,left,['1'],6,935,[0.17696564],100,53,easy,plus,dotcolour,alfa,,,100,18,V,R,
36,36,36,0,0,36,44,3583,['n'],1,right,['8'],3,1147,[-0.21816197],100,44,hard,plus,dotcolour,alfa,,,100,18,V,R,
37,37,37,0,0,47,33,899,['c'],1,left,['3'],4,682,[0.07332116],96,47,medium,plus,dotcolour,alfa,,,100,18,V,R,
38,38,38,0,0,44,36,983,['n'],0,left,['3'],4,521,[-0.06573484],96,44,hard,plus,dotcolour,alfa,,,100,18,V,R,
39,39,39,0,0,27,53,616,['n'],1,right,['1'],6,748,[-0.25081548],100,53,easy,plus,dotcolour,alfa,,,100,18,V,R,
40,40,40,0,0,44,36,2266,['n'],0,left,['3'],4,709,[-0.01066321],61,44,hard,plus,dotcolour,alfa,,,100,18,V,R,
41,41,41,0,0,36,44,1084,['n'],1,right,['3'],4,294,[-0.19412776],100,44,hard,plus,dotcolour,alfa,,,100,18,V,R,
42,42,0,1,0,33,47,785,['n'],1,right,['2'],5,960,[-0.12414596],99,47,medium,plus,dotcolour,alfa,,,100,18,V,R,
43,43,1,1,0,47,33,1217,['c'],1,left,['3'],4,666,[0.04326733],87,47,medium,plus,dotcolour,alfa,,,100,18,V,R,
44,44,2,1,0,36,44,3682,['n'],1,right,['8'],3,765,[-0.05948914],92,44,hard,plus,dotcolour,alfa,,,100,18,V,R,
45,45,3,1,0,33,47,1633,['n'],1,right,['3'],4,607,[-0.23619174],100,47,medium,plus,dotcolour,alfa,,,100,18,V,R,
46,46,4,1,0,27,53,1233,['n'],1,right,['1'],6,1102,[-0.13122266],99,53,easy,plus,dotcolour,alfa,,,100,18,V,R,
47,47,5,1,0,36,44,1400,['n'],1,right,['3'],4,691,[-0.11282252],99,44,hard,plus,dotcolour,alfa,,,100,18,V,R,
48,48,6,1,0,33,47,802,['n'],1,right,['2'],5,432,[-0.13552309],100,47,medium,plus,dotcolour,alfa,,,100,18,V,R,
49,49,7,1,0,47,33,1816,['n'],0,left,['1'],6,655,[-0.04746624],89,47,medium,plus,dotcolour,alfa,,,100,18,V,R,
50,50,8,1,0,53,27,1100,['c'],1,left,['2'],5,626,[0.08970011],98,53,easy,plus,dotcolour,alfa,,,100,18,V,R,
51,51,9,1,0,47,33,1200,['n'],0,left,['2'],5,690,[-0.08141905],97,47,medium,plus,dotcolour,alfa,,,100,18,V,R,
52,52,10,1,0,36,44,984,['n'],1,right,['1'],6,376,[-0.0587345],97,44,hard,plus,dotcolour,alfa,,,100,18,V,R,
53,53,11,1,0,53,27,1183,['c'],1,left,['3'],4,571,[0.14165836],100,53,easy,plus,dotcolour,alfa,,,100,18,V,R,
54,54,12,1,0,47,33,1200,['c'],1,left,['3'],4,477,[0.04035838],89,47,medium,plus,dotcolour,alfa,,,100,18,V,R,
55,55,13,1,0,27,53,916,['n'],1,right,['3'],4,423,[-0.05825906],96,53,easy,plus,dotcolour,alfa,,,100,18,V,R,
56,56,14,1,0,44,36,833,['n'],0,left,['3'],4,333,[-0.05094528],96,44,hard,plus,dotcolour,alfa,,,100,18,V,R,
57,57,15,1,0,44,36,2401,['c'],1,left,['3'],4,1217,[-0.00323078],47,44,hard,plus,dotcolour,alfa,,,100,18,V,R,
58,58,16,1,0,27,53,833,['n'],1,right,['1'],6,503,[-0.25304456],100,53,easy,plus,dotcolour,alfa,,,100,18,V,R,
59,59,17,1,0,27,53,867,['n'],1,right,['1'],6,362,[-0.07679441],99,53,easy,plus,dotcolour,alfa,,,100,18,V,R,
60,60,18,1,0,36,44,883,['n'],1,right,['1'],6,322,[-0.02261879],81,44,hard,plus,dotcolour,alfa,,,100,18,V,R,
61,61,19,1,0,53,27,1234,['c'],1,left,['2'],5,661,[0.31110725],100,53,easy,plus,dotcolour,alfa,,,100,18,V,R,
62,62,20,1,0,53,27,984,['c'],1,left,['1'],6,660,[0.26291026],100,53,easy,plus,dotcolour,alfa,,,100,18,V,R,
63,63,21,1,0,44,36,2234,['n'],0,left,['1'],6,353,[-0.07026787],99,44,hard,plus,dotcolour,alfa,,,100,18,V,R,
64,64,22,1,0,33,47,750,['n'],1,right,['2'],5,791,[-0.07182962],95,47,medium,plus,dotcolour,alfa,,,100,18,V,R,
65,65,23,1,0,53,27,950,['c'],1,left,['1'],6,458,[0.05841855],96,53,easy,plus,dotcolour,alfa,,,100,18,V,R,
66,66,24,1,0,47,33,1583,['c'],1,left,['3'],4,834,[0.28781898],100,47,medium,plus,dotcolour,alfa,,,100,18,V,R,
67,67,25,1,0,36,44,767,['n'],1,right,['1'],6,451,[-0.04293931],91,44,hard,plus,dotcolour,alfa,,,100,18,V,R,
68,68,26,1,0,27,53,1000,['n'],1,right,['2'],5,290,[-0.04694502],96,53,easy,plus,dotcolour,alfa,,,100,18,V,R,
69,69,27,1,0,33,47,684,['n'],1,right,['2'],5,292,[-0.21768358],100,47,medium,plus,dotcolour,alfa,,,100,18,V,R,
70,70,28,1,0,44,36,1050,['n'],0,left,['2'],5,271,[-0.18869222],100,44,hard,plus,dotcolour,alfa,,,100,18,V,R,
71,71,29,1,0,44,36,800,['n'],0,left,['2'],5,327,[-0.11027227],100,44,hard,plus,dotcolour,alfa,,,100,18,V,R,
72,72,30,1,0,36,44,950,['n'],1,right,['1'],6,284,[-0.06141069],98,44,hard,plus,dotcolour,alfa,,,100,18,V,R,
73,73,31,1,0,27,53,901,['n'],1,right,['1'],6,238,[-0.08839516],100,53,easy,plus,dotcolour,alfa,,,100,18,V,R,
74,74,32,1,0,36,44,933,['n'],1,right,['1'],6,417,[-0.20262881],100,44,hard,plus,dotcolour,alfa,,,100,18,V,R,
75,75,33,1,0,33,47,1217,['n'],1,right,['3'],4,217,[-0.04879211],98,47,medium,plus,dotcolour,alfa,,,100,18,V,R,
76,76,34,1,0,47,33,1684,['c'],1,left,['3'],4,838,[0.21910324],100,47,medium,plus,dotcolour,alfa,,,100,18,V,R,
77,77,35,1,0,44,36,1067,['c'],1,left,['3'],4,683,[0.20203666],100,44,hard,plus,dotcolour,alfa,,,100,18,V,R,
78,78,36,1,0,44,36,2267,['n'],0,left,['3'],4,934,[-0.09545437],97,44,hard,plus,dotcolour,alfa,,,100,18,V,R,
79,79,37,1,0,53,27,1283,['c'],1,left,['2'],5,886,[0.19300206],100,53,easy,plus,dotcolour,alfa,,,100,18,V,R,
80,80,38,1,0,33,47,983,['n'],1,right,['2'],5,1988,[-0.2594656],100,47,medium,plus,dotcolour,alfa,,,100,18,V,R,
81,81,39,1,0,53,27,933,['c'],1,left,['2'],5,449,[0.13331926],100,53,easy,plus,dotcolour,alfa,,,100,18,V,R,
82,82,40,1,0,47,33,1150,['c'],1,left,['2'],5,770,[0.12435823],99,47,medium,plus,dotcolour,alfa,,,100,18,V,R,
83,83,41,1,0,27,53,1067,['n'],1,right,['1'],6,330,[-0.13947409],100,53,easy,plus,dotcolour,alfa,,,100,18,V,R,
84,84,0,2,0,27,53,1134,['n'],1,right,['1'],6,243,[-0.05232581],98,53,easy,plus,dotcolour,alfa,,,100,18,V,R,
85,85,1,2,0,36,44,2100,['n'],1,right,['3'],4,766,[-0.14450896],100,44,hard,plus,dotcolour,alfa,,,100,18,V,R,
86,86,2,2,0,47,33,1466,['c'],1,left,['3'],4,623,[0.01840767],70,47,medium,plus,dotcolour,alfa,,,100,18,V,R,
87,87,3,2,0,36,44,1101,['n'],1,right,['2'],5,307,[-0.06637094],99,44,hard,plus,dotcolour,alfa,,,100,18,V,R,
88,88,4,2,0,27,53,800,['n'],1,right,['2'],5,536,[-0.08789972],99,53,easy,plus,dotcolour,alfa,,,100,18,V,R,
89,89,5,2,0,44,36,2600,['c'],1,left,['3'],4,2147,[0.29292606],100,44,hard,plus,dotcolour,alfa,,,100,18,V,R,
90,90,6,2,0,36,44,2200,['c'],0,right,['8'],3,822,[0.02606849],74,44,hard,plus,dotcolour,alfa,,,100,18,V,R,
91,91,7,2,0,53,27,1401,['c'],1,left,['2'],5,406,[0.12302111],100,53,easy,plus,dotcolour,alfa,,,100,18,V,R,
92,92,8,2,0,36,44,1067,['n'],1,right,['3'],4,484,[-0.03780376],88,44,hard,plus,dotcolour,alfa,,,100,18,V,R,
93,93,9,2,0,33,47,1800,['n'],1,right,['3'],4,362,[-0.11924873],100,47,medium,plus,dotcolour,alfa,,,100,18,V,R,
94,94,10,2,0,27,53,850,['n'],1,right,['3'],4,163,[-0.0494895],99,53,easy,plus,dotcolour,alfa,,,100,18,V,R,
95,95,11,2,0,27,53,4867,['n'],1,right,['8'],3,283,[-0.11580417],100,53,easy,plus,dotcolour,alfa,,,100,18,V,R,
96,96,12,2,0,47,33,1334,['c'],1,left,['3'],4,556,[0.1788543],100,47,medium,plus,dotcolour,alfa,,,100,18,V,R,
97,97,13,2,0,53,27,2066,['c'],1,left,['3'],4,260,[0.13542948],100,53,easy,plus,dotcolour,alfa,,,100,18,V,R,
98,98,14,2,0,33,47,2300,['n'],1,right,['2'],5,454,[-0.13381311],100,47,medium,plus,dotcolour,alfa,,,100,18,V,R,
99,99,15,2,0,44,36,1884,['c'],1,left,['8'],3,802,[0.10161757],98,44,hard,plus,dotcolour,alfa,,,100,18,V,R,
100,100,16,2,0,44,36,2550,['c'],1,left,['3'],4,2140,[0.16041468],98,44,hard,plus,dotcolour,alfa,,,100,18,V,R,
101,101,17,2,0,44,36,1051,['c'],1,left,['2'],5,1478,[0.15870726],99,44,hard,plus,dotcolour,alfa,,,100,18,V,R,
102,102,18,2,0,47,33,4617,['n'],0,left,['8'],3,619,[0.06850108],4,47,medium,plus,dotcolour,alfa,,,100,18,V,R,
103,103,19,2,0,27,53,2867,['n'],1,right,['3'],4,761,[-0.2703114],100,53,easy,plus,dotcolour,alfa,,,100,18,V,R,
104,104,20,2,0,27,53,933,['n'],1,right,['2'],5,438,[-0.12374263],100,53,easy,plus,dotcolour,alfa,,,100,18,V,R,
105,105,21,2,0,27,53,1150,['n'],1,right,['1'],6,232,[-0.09722722],100,53,easy,plus,dotcolour,alfa,,,100,18,V,R,
106,106,22,2,0,33,47,767,['n'],1,right,['1'],6,161,[-0.14144833],100,47,medium,plus,dotcolour,alfa,,,100,18,V,R,
107,107,23,2,0,47,33,1150,['c'],1,left,['2'],5,1351,[0.28134548],100,47,medium,plus,dotcolour,alfa,,,100,18,V,R,
108,108,24,2,0,36,44,1000,['n'],1,right,['2'],5,905,[-0.17829166],100,44,hard,plus,dotcolour,alfa,,,100,18,V,R,
109,109,25,2,0,36,44,4150,['n'],1,right,['2'],5,303,[-0.04255354],94,44,hard,plus,dotcolour,alfa,,,100,18,V,R,
110,110,26,2,0,33,47,801,['n'],1,right,['2'],5,836,[-0.16572897],100,47,medium,plus,dotcolour,alfa,,,100,18,V,R,
111,111,27,2,0,47,33,1150,['c'],1,left,['1'],6,253,[0.12099691],100,47,medium,plus,dotcolour,alfa,,,100,18,V,R,
112,112,28,2,0,44,36,1050,['n'],0,left,['8'],3,1731,[-0.17148425],99,44,hard,plus,dotcolour,alfa,,,100,18,V,R,
113,113,29,2,0,33,47,2034,['n'],1,right,['3'],4,1390,[-0.22714281],100,47,medium,plus,dotcolour,alfa,,,100,18,V,R,
114,114,30,2,0,44,36,999,['n'],0,left,['3'],4,214,[-0.11458648],100,44,hard,plus,dotcolour,alfa,,,100,18,V,R,
115,115,31,2,0,33,47,1383,['n'],1,right,['3'],4,192,[-0.10288369],100,47,medium,plus,dotcolour,alfa,,,100,18,V,R,
116,116,32,2,0,44,36,767,['n'],0,left,['3'],4,194,[-0.04232275],97,44,hard,plus,dotcolour,alfa,,,100,18,V,R,
117,117,33,2,0,53,27,1016,['c'],1,left,['3'],4,275,[0.12310815],100,53,easy,plus,dotcolour,alfa,,,100,18,V,R,
118,118,34,2,0,53,27,1034,['c'],1,left,['2'],5,624,[0.11123582],99,53,easy,plus,dotcolour,alfa,,,100,18,V,R,
119,119,35,2,0,53,27,1350,['c'],1,left,['2'],5,682,[0.13453678],100,53,easy,plus,dotcolour,alfa,,,100,18,V,R,
120,120,36,2,0,53,27,866,['c'],1,left,['2'],5,358,[0.15194255],100,53,easy,plus,dotcolour,alfa,,,100,18,V,R,
121,121,37,2,0,36,44,1150,['n'],1,right,['9'],2,170,[-0.09120868],100,44,hard,plus,dotcolour,alfa,,,100,18,V,R,
122,122,38,2,0,47,33,2968,['n'],0,left,['8'],3,918,[0.0157302],36,47,medium,plus,dotcolour,alfa,,,100,18,V,R,
123,123,39,2,0,47,33,3700,['c'],1,left,['3'],4,174,[0.10378723],100,47,medium,plus,dotcolour,alfa,,,100,18,V,R,
124,124,40,2,0,53,27,1017,['c'],1,left,['2'],5,592,[0.13282362],100,53,easy,plus,dotcolour,alfa,,,100,18,V,R,
125,125,41,2,0,33,47,2683,['n'],1,right,['1'],6,1062,[-0.11258881],98,47,medium,plus,dotcolour,alfa,,,100,18,V,R,
126,0,0,3,1,33,47,1318,['n'],1,right,['1'],6,252,[-0.05047169],71,47,medium,minus,dotcolour,alfa,,,100,18,V,R,
127,1,1,3,1,44,36,967,['n'],0,left,['2'],5,437,[0.00180597],49,44,hard,minus,dotcolour,alfa,,,100,18,V,R,
128,2,2,3,1,33,47,1483,['n'],1,right,['3'],4,881,[-0.15609352],82,47,medium,minus,dotcolour,alfa,,,100,18,V,R,
129,3,3,3,1,53,27,967,['c'],1,left,['1'],6,1128,[0.2722984],91,53,easy,minus,dotcolour,alfa,,,100,18,V,R,
130,4,4,3,1,36,44,1117,['n'],1,right,['2'],5,1927,[-0.2421846],83,44,hard,minus,dotcolour,alfa,,,100,18,V,R,
131,5,5,3,1,44,36,1450,['n'],0,left,['3'],4,457,[-0.13241333],85,44,hard,minus,dotcolour,alfa,,,100,18,V,R,
132,6,6,3,1,27,53,784,['n'],1,right,['1'],6,280,[-0.21672151],98,53,easy,minus,dotcolour,alfa,,,100,18,V,R,
133,7,7,3,1,27,53,749,['n'],1,right,['1'],6,328,[-0.11290066],85,53,easy,minus,dotcolour,alfa,,,100,18,V,R,
134,8,8,3,1,36,44,1384,['n'],1,right,['2'],5,245,[-0.04627947],70,44,hard,minus,dotcolour,alfa,,,100,18,V,R,
135,9,9,3,1,33,47,867,['n'],1,right,['2'],5,298,[-0.13831774],91,47,medium,minus,dotcolour,alfa,,,100,18,V,R,
136,10,10,3,1,53,27,1316,['c'],1,left,['1'],6,435,[0.07903571],75,53,easy,minus,dotcolour,alfa,,,100,18,V,R,
137,11,11,3,1,47,33,1199,['n'],0,left,['2'],5,1835,[0.16937762],25,47,medium,minus,dotcolour,alfa,,,100,18,V,R,
138,12,12,3,1,36,44,1301,['n'],1,right,['3'],4,1038,[-0.10482334],72,44,hard,minus,dotcolour,alfa,,,100,18,V,R,
139,13,13,3,1,53,27,1784,['c'],1,left,['2'],5,854,[0.07055683],67,53,easy,minus,dotcolour,alfa,,,100,18,V,R,
140,14,14,3,1,44,36,916,['n'],0,left,['3'],4,576,[0.10158246],23,44,hard,minus,dotcolour,alfa,,,100,18,V,R,
141,15,15,3,1,33,47,950,['n'],1,right,['2'],5,356,[-0.1070922],83,47,medium,minus,dotcolour,alfa,,,100,18,V,R,
142,16,16,3,1,44,36,1816,['n'],0,left,['8'],3,246,[-0.04421729],69,44,hard,minus,dotcolour,alfa,,,100,18,V,R,
143,17,17,3,1,36,44,2300,['n'],1,right,['2'],5,137,[-0.10669535],93,44,hard,minus,dotcolour,alfa,,,100,18,V,R,
144,18,18,3,1,27,53,1018,['n'],1,right,['3'],4,949,[-0.20207449],87,53,easy,minus,dotcolour,alfa,,,100,18,V,R,
145,19,19,3,1,53,27,1284,['c'],1,left,['2'],5,773,[0.1064552],75,53,easy,minus,dotcolour,alfa,,,100,18,V,R,
146,20,20,3,1,47,33,1767,['c'],1,left,['2'],5,264,[-0.00230915],49,47,medium,minus,dotcolour,alfa,,,100,18,V,R,
147,21,21,3,1,36,44,701,['n'],1,right,['2'],5,442,[-0.06610759],71,44,hard,minus,dotcolour,alfa,,,100,18,V,R,
148,22,22,3,1,44,36,1617,['c'],1,left,['8'],3,1721,[0.25264488],85,44,hard,minus,dotcolour,alfa,,,100,18,V,R,
149,23,23,3,1,33,47,4684,['c'],0,right,['2'],5,250,[0.15568312],94,47,medium,minus,dotcolour,alfa,,,100,18,V,R,
150,24,24,3,1,27,53,1083,['n'],1,right,['2'],5,798,[-0.27389571],94,53,easy,minus,dotcolour,alfa,,,100,18,V,R,
151,25,25,3,1,27,53,767,['n'],1,right,['1'],6,337,[-0.03395606],63,53,easy,minus,dotcolour,alfa,,,100,18,V,R,
152,26,26,3,1,36,44,1217,['n'],1,right,['3'],4,516,[-0.10888973],80,44,hard,minus,dotcolour,alfa,,,100,18,V,R,
153,27,27,3,1,36,44,800,['n'],1,right,['2'],5,1097,[-0.14290449],77,44,hard,minus,dotcolour,alfa,,,100,18,V,R,
154,28,28,3,1,47,33,1018,['c'],1,left,['2'],5,374,[0.08922417],79,47,medium,minus,dotcolour,alfa,,,100,18,V,R,
155,29,29,3,1,27,53,866,['n'],1,right,['2'],5,374,[-0.19292367],94,53,easy,minus,dotcolour,alfa,,,100,18,V,R,
156,30,30,3,1,47,33,1117,['c'],1,left,['3'],4,538,[0.13513358],84,47,medium,minus,dotcolour,alfa,,,100,18,V,R,
157,31,31,3,1,47,33,1284,['c'],1,left,['3'],4,435,[0.13157197],86,47,medium,minus,dotcolour,alfa,,,100,18,V,R,
158,32,32,3,1,33,47,934,['c'],0,right,['3'],4,302,[-0.03250038],37,47,medium,minus,dotcolour,alfa,,,100,18,V,R,
159,33,33,3,1,44,36,1251,['n'],0,left,['8'],3,529,[0.06300689],31,44,hard,minus,dotcolour,alfa,,,100,18,V,R,
160,34,34,3,1,47,33,3417,['n'],0,left,['8'],3,2796,[0.10902927],36,47,medium,minus,dotcolour,alfa,,,100,18,V,R,
161,35,35,3,1,53,27,1017,['n'],0,left,['8'],3,276,[-0.06164591],74,53,easy,minus,dotcolour,alfa,,,100,18,V,R,
162,36,36,3,1,53,27,1117,['c'],1,left,['3'],4,646,[0.09261191],74,53,easy,minus,dotcolour,alfa,,,100,18,V,R,
163,37,37,3,1,27,53,1634,['n'],1,right,['2'],5,459,[-0.1335863],86,53,easy,minus,dotcolour,alfa,,,100,18,V,R,
164,38,38,3,1,47,33,1150,['c'],1,left,['2'],5,620,[0.32950823],98,47,medium,minus,dotcolour,alfa,,,100,18,V,R,
165,39,39,3,1,53,27,1234,['n'],0,left,['3'],4,946,[0.00486896],49,53,easy,minus,dotcolour,alfa,,,100,18,V,R,
166,40,40,3,1,33,47,1967,['n'],1,right,['3'],4,206,[-0.06311495],78,47,medium,minus,dotcolour,alfa,,,100,18,V,R,
167,41,41,3,1,44,36,1499,['n'],0,left,['2'],5,788,[-0.14253722],81,44,hard,minus,dotcolour,alfa,,,100,18,V,R,
168,42,0,4,1,36,44,917,['n'],1,right,['2'],5,251,[-0.19387852],97,44,hard,minus,dotcolour,alfa,,,100,18,V,R,
169,43,1,4,1,53,27,783,['c'],1,left,['1'],6,251,[0.16578166],95,53,easy,minus,dotcolour,alfa,,,100,18,V,R,
170,44,2,4,1,44,36,833,['c'],1,left,['1'],6,241,[0.11093913],88,44,hard,minus,dotcolour,alfa,,,100,18,V,R,
171,45,3,4,1,36,44,2800,['n'],1,right,['1'],6,144,[-0.13376818],96,44,hard,minus,dotcolour,alfa,,,100,18,V,R,
172,46,4,4,1,44,36,4565,['c'],1,left,['3'],4,126,[0.05758181],81,44,hard,minus,dotcolour,alfa,,,100,18,V,R,
173,47,5,4,1,27,53,901,['n'],1,right,['2'],5,1269,[-0.20461176],84,53,easy,minus,dotcolour,alfa,,,100,18,V,R,
174,48,6,4,1,47,33,6750,['c'],1,left,['0'],1,11958,[0.80030309],89,47,medium,minus,dotcolour,alfa,,,100,18,V,R,
175,49,7,4,1,33,47,1200,['n'],1,right,['2'],5,669,[-0.2246501],92,47,medium,minus,dotcolour,alfa,,,100,18,V,R,
176,50,8,4,1,33,47,833,['n'],1,right,['3'],4,355,[-0.02461389],59,47,medium,minus,dotcolour,alfa,,,100,18,V,R,
177,51,9,4,1,36,44,650,['n'],1,right,['3'],4,339,[-0.11104348],85,44,hard,minus,dotcolour,alfa,,,100,18,V,R,
178,52,10,4,1,27,53,700,['n'],1,right,['3'],4,211,[-0.06451321],78,53,easy,minus,dotcolour,alfa,,,100,18,V,R,
179,53,11,4,1,47,33,950,['n'],0,left,['2'],5,221,[-0.02033257],60,47,medium,minus,dotcolour,alfa,,,100,18,V,R,
180,54,12,4,1,44,36,1200,['n'],0,left,['8'],3,1126,[-0.06565035],64,44,hard,minus,dotcolour,alfa,,,100,18,V,R,
181,55,13,4,1,27,53,900,['n'],1,right,['2'],5,661,[-0.21610702],92,53,easy,minus,dotcolour,alfa,,,100,18,V,R,
182,56,14,4,1,47,33,1416,['n'],0,left,['8'],3,444,[-0.08750511],77,47,medium,minus,dotcolour,alfa,,,100,18,V,R,
183,57,15,4,1,47,33,1166,['c'],1,left,['3'],4,452,[0.08984456],77,47,medium,minus,dotcolour,alfa,,,100,18,V,R,
184,58,16,4,1,44,36,1400,['n'],0,left,['8'],3,980,[-0.09710828],71,44,hard,minus,dotcolour,alfa,,,100,18,V,R,
185,59,17,4,1,53,27,2133,['n'],0,left,['9'],2,344,[-0.01834817],57,53,easy,minus,dotcolour,alfa,,,100,18,V,R,
186,60,18,4,1,33,47,2251,['n'],1,right,['8'],3,1298,[-0.25782015],88,47,medium,minus,dotcolour,alfa,,,100,18,V,R,
187,61,19,4,1,36,44,1351,['c'],0,right,['3'],4,425,[0.05426231],68,44,hard,minus,dotcolour,alfa,,,100,18,V,R,
188,62,20,4,1,53,27,1383,['c'],1,left,['3'],4,586,[0.15514895],86,53,easy,minus,dotcolour,alfa,,,100,18,V,R,
189,63,21,4,1,27,53,966,['n'],1,right,['1'],6,469,[-0.13124038],85,53,easy,minus,dotcolour,alfa,,,100,18,V,R,
190,64,22,4,1,33,47,1166,['n'],1,right,['1'],6,669,[-0.1205443],79,47,medium,minus,dotcolour,alfa,,,100,18,V,R,
191,65,23,4,1,44,36,1117,['c'],1,left,['3'],4,503,[0.0589564],68,44,hard,minus,dotcolour,alfa,,,100,18,V,R,
192,66,24,4,1,27,53,866,['n'],1,right,['2'],5,258,[-0.12212126],90,53,easy,minus,dotcolour,alfa,,,100,18,V,R,
193,67,25,4,1,53,27,1133,['c'],1,left,['2'],5,963,[0.06306333],64,53,easy,minus,dotcolour,alfa,,,100,18,V,R,
194,68,26,4,1,47,33,884,['c'],1,left,['2'],5,306,[0.26631723],99,47,medium,minus,dotcolour,alfa,,,100,18,V,R,
195,69,27,4,1,36,44,3251,['n'],1,right,['2'],5,349,[-0.0681023],74,44,hard,minus,dotcolour,alfa,,,100,18,V,R,
196,70,28,4,1,36,44,834,['n'],1,right,['2'],5,271,[-0.21250627],98,44,hard,minus,dotcolour,alfa,,,100,18,V,R,
197,71,29,4,1,44,36,950,['n'],0,left,['1'],6,687,[-0.05459678],64,44,hard,minus,dotcolour,alfa,,,100,18,V,R,
198,72,30,4,1,53,27,884,['c'],1,left,['1'],6,385,[0.08779963],78,53,easy,minus,dotcolour,alfa,,,100,18,V,R,
199,73,31,4,1,53,27,917,['c'],1,left,['1'],6,279,[0.10433229],86,53,easy,minus,dotcolour,alfa,,,100,18,V,R,
200,74,32,4,1,36,44,782,['n'],1,right,['0'],1,309,[-0.03308365],63,44,hard,minus,dotcolour,alfa,,,100,18,V,R,
201,75,33,4,1,44,36,4116,['n'],0,left,['0'],1,2670,[-0.31218235],85,44,hard,minus,dotcolour,alfa,,,100,18,V,R,
202,76,34,4,1,47,33,967,['c'],1,left,['3'],4,1045,[0.15739545],80,47,medium,minus,dotcolour,alfa,,,100,18,V,R,
203,77,35,4,1,27,53,1633,['n'],1,right,['0'],1,467,[-0.18432289],92,53,easy,minus,dotcolour,alfa,,,100,18,V,R,
204,78,36,4,1,33,47,1383,['n'],1,right,['3'],4,450,[-0.04259514],64,47,medium,minus,dotcolour,alfa,,,100,18,V,R,
205,79,37,4,1,53,27,1251,['c'],1,left,['3'],4,359,[0.12303487],86,53,easy,minus,dotcolour,alfa,,,100,18,V,R,
206,80,38,4,1,33,47,966,['n'],1,right,['3'],4,1500,[-0.00448537],51,47,medium,minus,dotcolour,alfa,,,100,18,V,R,
207,81,39,4,1,47,33,1000,['n'],0,left,['2'],5,280,[0.00757986],47,47,medium,minus,dotcolour,alfa,,,100,18,V,R,
208,82,40,4,1,27,53,1050,['n'],1,right,['2'],5,364,[-0.13219093],88,53,easy,minus,dotcolour,alfa,,,100,18,V,R,
209,83,41,4,1,33,47,1350,['n'],1,right,['3'],4,297,[-0.08609658],81,47,medium,minus,dotcolour,alfa,,,100,18,V,R,
210,84,0,5,1,33,47,1051,['n'],1,right,['3'],4,507,[-0.02551229],58,47,medium,minus,dotcolour,alfa,,,100,18,V,R,
211,85,1,5,1,47,33,1117,['n'],0,left,['3'],4,123,[-0.0801717],89,47,medium,minus,dotcolour,alfa,,,100,18,V,R,
212,86,2,5,1,33,47,1117,['n'],1,right,['3'],4,147,[-0.08988607],89,47,medium,minus,dotcolour,alfa,,,100,18,V,R,
213,87,3,5,1,27,53,884,['n'],1,right,['1'],6,348,[-0.08084231],77,53,easy,minus,dotcolour,alfa,,,100,18,V,R,
214,88,4,5,1,27,53,734,['n'],1,right,['2'],5,322,[-0.18461137],95,53,easy,minus,dotcolour,alfa,,,100,18,V,R,
215,89,5,5,1,53,27,1017,['n'],0,left,['0'],1,2550,[0.058414],42,53,easy,minus,dotcolour,alfa,,,100,18,V,R,
216,90,6,5,1,44,36,2951,['n'],0,left,['8'],3,858,[-0.02811553],57,44,hard,minus,dotcolour,alfa,,,100,18,V,R,
217,91,7,5,1,53,27,767,['c'],1,left,['3'],4,713,[0.32262737],97,53,easy,minus,dotcolour,alfa,,,100,18,V,R,
218,92,8,5,1,36,44,950,['n'],1,right,['2'],5,1088,[-0.20382597],85,44,hard,minus,dotcolour,alfa,,,100,18,V,R,
219,93,9,5,1,33,47,983,['n'],1,right,['2'],5,615,[-0.17378921],88,47,medium,minus,dotcolour,alfa,,,100,18,V,R,
220,94,10,5,1,36,44,867,['n'],1,right,['2'],5,700,[-0.0141198],54,44,hard,minus,dotcolour,alfa,,,100,18,V,R,
221,95,11,5,1,44,36,1400,['c'],1,left,['3'],4,554,[0.23032779],94,44,hard,minus,dotcolour,alfa,,,100,18,V,R,
222,96,12,5,1,47,33,750,['c'],1,left,['3'],4,334,[0.16023268],92,47,medium,minus,dotcolour,alfa,,,100,18,V,R,
223,97,13,5,1,33,47,784,['c'],0,right,['3'],4,267,[0.0057805],53,47,medium,minus,dotcolour,alfa,,,100,18,V,R,
224,98,14,5,1,44,36,1401,['c'],1,left,['3'],4,282,[0.07809838],79,44,hard,minus,dotcolour,alfa,,,100,18,V,R,
225,99,15,5,1,53,27,1467,['c'],1,left,['3'],4,557,[0.16072337],87,53,easy,minus,dotcolour,alfa,,,100,18,V,R,
226,100,16,5,1,44,36,683,['c'],1,left,['3'],4,268,[0.11067959],87,44,hard,minus,dotcolour,alfa,,,100,18,V,R,
227,101,17,5,1,27,53,850,['n'],1,right,['2'],5,265,[-0.08397305],81,53,easy,minus,dotcolour,alfa,,,100,18,V,R,
228,102,18,5,1,47,33,1367,['c'],1,left,['2'],5,442,[0.14719983],88,47,medium,minus,dotcolour,alfa,,,100,18,V,R,
229,103,19,5,1,27,53,1184,['n'],1,right,['2'],5,306,[-0.23138764],98,53,easy,minus,dotcolour,alfa,,,100,18,V,R,
230,104,20,5,1,33,47,1050,['n'],1,right,['3'],4,628,[-0.11408558],79,47,medium,minus,dotcolour,alfa,,,100,18,V,R,
231,105,21,5,1,53,27,833,['c'],1,left,['2'],5,467,[0.10773018],81,53,easy,minus,dotcolour,alfa,,,100,18,V,R,
232,106,22,5,1,36,44,867,['c'],0,right,['2'],5,430,[0.00226555],51,44,hard,minus,dotcolour,alfa,,,100,18,V,R,
233,107,23,5,1,36,44,1567,['n'],1,right,['2'],5,256,[0.0036113],48,44,hard,minus,dotcolour,alfa,,,100,18,V,R,
234,108,24,5,1,36,44,2466,['n'],1,right,['8'],3,492,[-0.11294404],81,44,hard,minus,dotcolour,alfa,,,100,18,V,R,
235,109,25,5,1,53,27,883,['c'],1,left,['1'],6,550,[0.15171744],86,53,easy,minus,dotcolour,alfa,,,100,18,V,R,
236,110,26,5,1,33,47,1000,['c'],0,right,['3'],4,1921,[-0.09064184],36,47,medium,minus,dotcolour,alfa,,,100,18,V,R,
237,111,27,5,1,53,27,1550,['c'],1,left,['3'],4,864,[0.18706784],86,53,easy,minus,dotcolour,alfa,,,100,18,V,R,
238,112,28,5,1,47,33,1017,['c'],1,left,['3'],4,589,[0.15767024],86,47,medium,minus,dotcolour,alfa,,,100,18,V,R,
239,113,29,5,1,53,27,817,['c'],1,left,['2'],5,551,[0.07481996],71,53,easy,minus,dotcolour,alfa,,,100,18,V,R,
240,114,30,5,1,27,53,1199,['n'],1,right,['2'],5,362,[-0.28945118],99,53,easy,minus,dotcolour,alfa,,,100,18,V,R,
241,115,31,5,1,44,36,1234,['n'],0,left,['3'],4,667,[-0.02928282],58,44,hard,minus,dotcolour,alfa,,,100,18,V,R,
242,116,32,5,1,44,36,2333,['n'],0,left,['3'],4,436,[-0.03826631],63,44,hard,minus,dotcolour,alfa,,,100,18,V,R,
243,117,33,5,1,44,36,1367,['n'],0,left,['3'],4,269,[-0.129386],90,44,hard,minus,dotcolour,alfa,,,100,18,V,R,
244,118,34,5,1,47,33,1699,['n'],0,left,['3'],4,344,[0.0581261],29,47,medium,minus,dotcolour,alfa,,,100,18,V,R,
245,119,35,5,1,47,33,1217,['c'],1,left,['2'],5,859,[0.11988851],76,47,medium,minus,dotcolour,alfa,,,100,18,V,R,
246,120,36,5,1,47,33,1117,['c'],1,left,['2'],5,125,[0.06297506],83,47,medium,minus,dotcolour,alfa,,,100,18,V,R,
247,121,37,5,1,36,44,950,['n'],1,right,['2'],5,643,[0.07053913],31,44,hard,minus,dotcolour,alfa,,,100,18,V,R,
248,122,38,5,1,27,53,4200,['n'],1,right,['8'],3,562,[-0.23795706],95,53,easy,minus,dotcolour,alfa,,,100,18,V,R,
249,123,39,5,1,36,44,1600,['n'],1,right,['2'],5,381,[-0.16251773],91,44,hard,minus,dotcolour,alfa,,,100,18,V,R,
250,124,40,5,1,27,53,1000,['n'],1,right,['9'],2,63,[-0.06833568],92,53,easy,minus,dotcolour,alfa,,,100,18,V,R,
251,125,41,5,1,33,47,1699,['n'],1,right,['2'],5,378,[-0.04265757],65,47,medium,minus,dotcolour,alfa,,,100,18,V,R,
252,0,0,6,2,36,44,917,['n'],1,right,['2'],5,281,[-0.05819092],98,44,hard,plus,dotcolour,alfa,,,100,18,V,R,
253,1,1,6,2,47,33,1117,['c'],1,left,['2'],5,554,[0.1424857],100,47,medium,plus,dotcolour,alfa,,,100,18,V,R,
254,2,2,6,2,47,33,1617,['c'],1,left,['2'],5,484,[0.09971964],99,47,medium,plus,dotcolour,alfa,,,100,18,V,R,
255,3,3,6,2,27,53,717,['n'],1,right,['2'],5,542,[-0.15508476],100,53,easy,plus,dotcolour,alfa,,,100,18,V,R,
256,4,4,6,2,44,36,1950,['c'],1,left,['3'],4,675,[-0.06118821],6,44,hard,plus,dotcolour,alfa,,,100,18,V,R,
257,5,5,6,2,53,27,1333,['c'],1,left,['3'],4,1372,[0.24966155],100,53,easy,plus,dotcolour,alfa,,,100,18,V,R,
258,6,6,6,2,36,44,6466,['n'],1,right,['3'],4,340,[-0.06132999],98,44,hard,plus,dotcolour,alfa,,,100,18,V,R,
259,7,7,6,2,33,47,4867,['n'],1,right,['3'],4,580,[-0.08903639],99,47,medium,plus,dotcolour,alfa,,,100,18,V,R,
260,8,8,6,2,33,47,1033,['n'],1,right,['3'],4,589,[-0.09782802],99,47,medium,plus,dotcolour,alfa,,,100,18,V,R,
261,9,9,6,2,53,27,766,['c'],1,left,['2'],5,455,[0.14483444],100,53,easy,plus,dotcolour,alfa,,,100,18,V,R,
262,10,10,6,2,33,47,966,['n'],1,right,['2'],5,263,[-0.13101669],100,47,medium,plus,dotcolour,alfa,,,100,18,V,R,
263,11,11,6,2,33,47,1517,['n'],1,right,['3'],4,233,[-0.1219174],100,47,medium,plus,dotcolour,alfa,,,100,18,V,R,
264,12,12,6,2,27,53,1566,['n'],1,right,['1'],6,1539,[-0.3513447],100,53,easy,plus,dotcolour,alfa,,,100,18,V,R,
265,13,13,6,2,47,33,1033,['c'],1,left,['2'],5,389,[0.14039909],100,47,medium,plus,dotcolour,alfa,,,100,18,V,R,
266,14,14,6,2,44,36,1184,['c'],1,left,['2'],5,263,[0.063632],99,44,hard,plus,dotcolour,alfa,,,100,18,V,R,
267,15,15,6,2,36,44,1049,['n'],1,right,['2'],5,372,[-0.01590134],72,44,hard,plus,dotcolour,alfa,,,100,18,V,R,
268,16,16,6,2,33,47,951,['n'],1,right,['2'],5,456,[-0.12024354],100,47,medium,plus,dotcolour,alfa,,,100,18,V,R,
269,17,17,6,2,47,33,1100,['c'],1,left,['3'],4,555,[0.20082712],100,47,medium,plus,dotcolour,alfa,,,100,18,V,R,
270,18,18,6,2,44,36,1284,['n'],0,left,['3'],4,434,[-0.02029413],75,44,hard,plus,dotcolour,alfa,,,100,18,V,R,
271,19,19,6,2,44,36,1317,['n'],0,left,['3'],4,261,[-0.07561393],100,44,hard,plus,dotcolour,alfa,,,100,18,V,R,
272,20,20,6,2,53,27,1351,['c'],1,left,['3'],4,286,[-0.01619189],25,53,easy,plus,dotcolour,alfa,,,100,18,V,R,
273,21,21,6,2,36,44,784,['n'],1,right,['3'],4,285,[-0.05041757],97,44,hard,plus,dotcolour,alfa,,,100,18,V,R,
274,22,22,6,2,36,44,818,['n'],1,right,['3'],4,282,[-0.1212438],100,44,hard,plus,dotcolour,alfa,,,100,18,V,R,
275,23,23,6,2,53,27,1017,['c'],1,left,['3'],4,271,[0.04777058],96,53,easy,plus,dotcolour,alfa,,,100,18,V,R,
276,24,24,6,2,33,47,868,['n'],1,right,['3'],4,284,[-0.11691597],100,47,medium,plus,dotcolour,alfa,,,100,18,V,R,
277,25,25,6,2,27,53,951,['c'],0,right,['3'],4,276,[0.03346316],91,53,easy,plus,dotcolour,alfa,,,100,18,V,R,
278,26,26,6,2,47,33,883,['c'],1,left,['2'],5,622,[0.12697781],100,47,medium,plus,dotcolour,alfa,,,100,18,V,R,
279,27,27,6,2,53,27,1951,['c'],1,left,['2'],5,432,[0.18100534],100,53,easy,plus,dotcolour,alfa,,,100,18,V,R,
280,28,28,6,2,47,33,1134,['c'],1,left,['1'],6,643,[-0.02159505],27,47,medium,plus,dotcolour,alfa,,,100,18,V,R,
281,29,29,6,2,33,47,1034,['n'],1,right,['3'],4,561,[-0.16472035],100,47,medium,plus,dotcolour,alfa,,,100,18,V,R,
282,30,30,6,2,44,36,1167,['c'],1,left,['3'],4,741,[0.13448574],100,44,hard,plus,dotcolour,alfa,,,100,18,V,R,
283,31,31,6,2,27,53,933,['n'],1,right,['2'],5,355,[-0.09246391],100,53,easy,plus,dotcolour,alfa,,,100,18,V,R,
284,32,32,6,2,53,27,1884,['c'],1,left,['3'],4,1675,[0.42531852],100,53,easy,plus,dotcolour,alfa,,,100,18,V,R,
285,33,33,6,2,36,44,3484,['n'],1,right,['3'],4,910,[-1.73867188e-05],50,44,hard,plus,dotcolour,alfa,,,100,18,V,R,
286,34,34,6,2,47,33,1184,['c'],1,left,['3'],4,331,[0.09160049],100,47,medium,plus,dotcolour,alfa,,,100,18,V,R,
287,35,35,6,2,27,53,784,['n'],1,right,['2'],5,592,[-0.11245858],99,53,easy,plus,dotcolour,alfa,,,100,18,V,R,
288,36,36,6,2,44,36,1484,['c'],1,left,['3'],4,653,[0.00944786],60,44,hard,plus,dotcolour,alfa,,,100,18,V,R,
289,37,37,6,2,36,44,1001,['c'],0,right,['3'],4,276,[0.14398738],100,44,hard,plus,dotcolour,alfa,,,100,18,V,R,
290,38,38,6,2,44,36,1116,['c'],1,left,['3'],4,237,[0.09443645],100,44,hard,plus,dotcolour,alfa,,,100,18,V,R,
291,39,39,6,2,27,53,1067,['n'],1,right,['3'],4,978,[-0.06188928],90,53,easy,plus,dotcolour,alfa,,,100,18,V,R,
292,40,40,6,2,27,53,967,['n'],1,right,['2'],5,350,[-0.10490011],100,53,easy,plus,dotcolour,alfa,,,100,18,V,R,
293,41,41,6,2,53,27,800,['c'],1,left,['2'],5,873,[0.24377973],100,53,easy,plus,dotcolour,alfa,,,100,18,V,R,
294,42,0,7,2,44,36,1300,['n'],0,left,['2'],5,481,[-0.17944691],100,44,hard,plus,dotcolour,alfa,,,100,18,V,R,
295,43,1,7,2,53,27,1017,['c'],1,left,['2'],5,527,[0.15177182],100,53,easy,plus,dotcolour,alfa,,,100,18,V,R,
296,44,2,7,2,36,44,1217,['n'],1,right,['2'],5,346,[-0.07987801],99,44,hard,plus,dotcolour,alfa,,,100,18,V,R,
297,45,3,7,2,36,44,1300,['c'],0,right,['2'],5,497,[0.09515162],99,44,hard,plus,dotcolour,alfa,,,100,18,V,R,
298,46,4,7,2,47,33,1583,['c'],1,left,['3'],4,415,[0.1267707],100,47,medium,plus,dotcolour,alfa,,,100,18,V,R,
299,47,5,7,2,33,47,851,['n'],1,right,['3'],4,686,[-0.21247919],100,47,medium,plus,dotcolour,alfa,,,100,18,V,R,
300,48,6,7,2,47,33,1450,['c'],1,left,['3'],4,1281,[0.35207761],100,47,medium,plus,dotcolour,alfa,,,100,18,V,R,
301,49,7,7,2,47,33,1067,['c'],1,left,['3'],4,260,[0.10230478],100,47,medium,plus,dotcolour,alfa,,,100,18,V,R,
302,50,8,7,2,44,36,1033,['c'],1,left,['3'],4,225,[0.07725845],100,44,hard,plus,dotcolour,alfa,,,100,18,V,R,
303,51,9,7,2,33,47,1050,['n'],1,right,['3'],4,263,[-0.17007491],100,47,medium,plus,dotcolour,alfa,,,100,18,V,R,
304,52,10,7,2,53,27,8932,['c'],1,left,['3'],4,1842,[0.5714777],100,53,easy,plus,dotcolour,alfa,,,100,18,V,R,
305,53,11,7,2,47,33,1199,['c'],1,left,['3'],4,440,[0.21433901],100,47,medium,plus,dotcolour,alfa,,,100,18,V,R,
306,54,12,7,2,33,47,933,['n'],1,right,['3'],4,258,[-0.12703779],100,47,medium,plus,dotcolour,alfa,,,100,18,V,R,
307,55,13,7,2,27,53,1000,['n'],1,right,['2'],5,249,[-0.15039953],100,53,easy,plus,dotcolour,alfa,,,100,18,V,R,
308,56,14,7,2,36,44,750,['n'],1,right,['2'],5,187,[-0.15463506],100,44,hard,plus,dotcolour,alfa,,,100,18,V,R,
309,57,15,7,2,27,53,834,['n'],1,right,['2'],5,283,[-0.08935205],100,53,easy,plus,dotcolour,alfa,,,100,18,V,R,
310,58,16,7,2,44,36,1051,['n'],0,left,['2'],5,143,[-0.07747696],100,44,hard,plus,dotcolour,alfa,,,100,18,V,R,
311,59,17,7,2,47,33,1284,['n'],0,left,['3'],4,143,[-0.01426375],80,47,medium,plus,dotcolour,alfa,,,100,18,V,R,
312,60,18,7,2,44,36,1050,['n'],0,left,['3'],4,160,[-0.05082348],99,44,hard,plus,dotcolour,alfa,,,100,18,V,R,
313,61,19,7,2,36,44,7200,['n'],1,right,['8'],3,899,[-0.06958912],93,44,hard,plus,dotcolour,alfa,,,100,18,V,R,
314,62,20,7,2,47,33,1017,['c'],1,left,['3'],4,456,[0.08016772],99,47,medium,plus,dotcolour,alfa,,,100,18,V,R,
315,63,21,7,2,53,27,3717,['c'],1,left,['3'],4,346,[0.17585693],100,53,easy,plus,dotcolour,alfa,,,100,18,V,R,
316,64,22,7,2,44,36,1151,['c'],1,left,['3'],4,359,[0.09105787],100,44,hard,plus,dotcolour,alfa,,,100,18,V,R,
317,65,23,7,2,44,36,1850,['n'],0,left,['3'],4,432,[-0.02132021],76,44,hard,plus,dotcolour,alfa,,,100,18,V,R,
318,66,24,7,2,36,44,900,['n'],1,right,['2'],5,364,[-0.16361643],100,44,hard,plus,dotcolour,alfa,,,100,18,V,R,
319,67,25,7,2,53,27,884,['n'],0,left,['3'],4,323,[-0.0954193],100,53,easy,plus,dotcolour,alfa,,,100,18,V,R,
320,68,26,7,2,33,47,1267,['n'],1,right,['3'],4,316,[-0.16804809],100,47,medium,plus,dotcolour,alfa,,,100,18,V,R,
321,69,27,7,2,33,47,917,['n'],1,right,['3'],4,292,[-0.09231072],100,47,medium,plus,dotcolour,alfa,,,100,18,V,R,
322,70,28,7,2,33,47,933,['n'],1,right,['1'],6,1765,[-0.13472747],97,47,medium,plus,dotcolour,alfa,,,100,18,V,R,
323,71,29,7,2,27,53,4033,['n'],1,right,['3'],4,445,[-0.20961184],100,53,easy,plus,dotcolour,alfa,,,100,18,V,R,
324,72,30,7,2,27,53,1034,['n'],1,right,['1'],6,323,[-0.1432485],100,53,easy,plus,dotcolour,alfa,,,100,18,V,R,
325,73,31,7,2,27,53,883,['n'],1,right,['1'],6,300,[-0.12671688],100,53,easy,plus,dotcolour,alfa,,,100,18,V,R,
326,74,32,7,2,47,33,1500,['c'],1,left,['2'],5,669,[0.14953138],100,47,medium,plus,dotcolour,alfa,,,100,18,V,R,
327,75,33,7,2,27,53,717,['n'],1,right,['1'],6,343,[-0.07685406],99,53,easy,plus,dotcolour,alfa,,,100,18,V,R,
328,76,34,7,2,53,27,1250,['c'],1,left,['1'],6,480,[0.15894656],100,53,easy,plus,dotcolour,alfa,,,100,18,V,R,
329,77,35,7,2,36,44,1350,['c'],0,right,['3'],4,288,[0.08328865],100,44,hard,plus,dotcolour,alfa,,,100,18,V,R,
330,78,36,7,2,53,27,867,['c'],1,left,['3'],4,355,[0.12162894],100,53,easy,plus,dotcolour,alfa,,,100,18,V,R,
331,79,37,7,2,44,36,884,['c'],1,left,['3'],4,275,[0.09475289],100,44,hard,plus,dotcolour,alfa,,,100,18,V,R,
332,80,38,7,2,53,27,667,['c'],1,left,['3'],4,190,[0.1286348],100,53,easy,plus,dotcolour,alfa,,,100,18,V,R,
333,81,39,7,2,27,53,800,['n'],1,right,['3'],4,320,[-0.06702596],99,53,easy,plus,dotcolour,alfa,,,100,18,V,R,
334,82,40,7,2,33,47,883,['n'],1,right,['3'],4,313,[-0.29775176],100,47,medium,plus,dotcolour,alfa,,,100,18,V,R,
335,83,41,7,2,36,44,867,['n'],1,right,['3'],4,179,[-0.06372824],100,44,hard,plus,dotcolour,alfa,,,100,18,V,R,
336,84,0,8,2,27,53,934,['n'],1,right,['3'],4,641,[-0.1729481],100,53,easy,plus,dotcolour,alfa,,,100,18,V,R,
337,85,1,8,2,33,47,867,['n'],1,right,['3'],4,166,[-0.09190382],100,47,medium,plus,dotcolour,alfa,,,100,18,V,R,
338,86,2,8,2,36,44,750,['n'],1,right,['3'],4,227,[-0.03497063],93,44,hard,plus,dotcolour,alfa,,,100,18,V,R,
339,87,3,8,2,44,36,900,['c'],1,left,['3'],4,263,[-0.01796309],22,44,hard,plus,dotcolour,alfa,,,100,18,V,R,
340,88,4,8,2,53,27,1283,['c'],1,left,['2'],5,290,[0.13604193],100,53,easy,plus,dotcolour,alfa,,,100,18,V,R,
341,89,5,8,2,47,33,801,['c'],1,left,['1'],6,304,[0.11574524],100,47,medium,plus,dotcolour,alfa,,,100,18,V,R,
342,90,6,8,2,33,47,1584,['n'],1,right,['2'],5,613,[-0.16006868],100,47,medium,plus,dotcolour,alfa,,,100,18,V,R,
343,91,7,8,2,33,47,816,['n'],1,right,['1'],6,198,[-0.0135101],75,47,medium,plus,dotcolour,alfa,,,100,18,V,R,
344,92,8,8,2,27,53,5033,['n'],1,right,['1'],6,189,[-0.07422205],100,53,easy,plus,dotcolour,alfa,,,100,18,V,R,
345,93,9,8,2,27,53,934,['n'],1,right,['1'],6,170,[-0.11614109],100,53,easy,plus,dotcolour,alfa,,,100,18,V,R,
346,94,10,8,2,33,47,799,['n'],1,right,['1'],6,180,[-0.10938983],100,47,medium,plus,dotcolour,alfa,,,100,18,V,R,
347,95,11,8,2,47,33,866,['c'],1,left,['2'],5,363,[0.12674796],100,47,medium,plus,dotcolour,alfa,,,100,18,V,R,
348,96,12,8,2,47,33,999,['c'],1,left,['3'],4,367,[0.0934224],100,47,medium,plus,dotcolour,alfa,,,100,18,V,R,
349,97,13,8,2,47,33,684,['c'],1,left,['3'],4,254,[0.1558485],100,47,medium,plus,dotcolour,alfa,,,100,18,V,R,
350,98,14,8,2,36,44,1099,['n'],1,right,['3'],4,226,[-0.12307629],100,44,hard,plus,dotcolour,alfa,,,100,18,V,R,
351,99,15,8,2,44,36,983,['n'],0,left,['3'],4,370,[-0.05853912],97,44,hard,plus,dotcolour,alfa,,,100,18,V,R,
352,100,16,8,2,53,27,950,['c'],1,left,['3'],4,366,[0.08774109],99,53,easy,plus,dotcolour,alfa,,,100,18,V,R,
353,101,17,8,2,44,36,1234,['c'],1,left,['3'],4,168,[0.06194028],100,44,hard,plus,dotcolour,alfa,,,100,18,V,R,
354,102,18,8,2,44,36,1932,['c'],1,left,['3'],4,261,[0.09761945],100,44,hard,plus,dotcolour,alfa,,,100,18,V,R,
355,103,19,8,2,27,53,1133,['n'],1,right,['3'],4,639,[-0.11734852],99,53,easy,plus,dotcolour,alfa,,,100,18,V,R,
356,104,20,8,2,53,27,750,['c'],1,left,['2'],5,376,[0.13876077],100,53,easy,plus,dotcolour,alfa,,,100,18,V,R,
357,105,21,8,2,47,33,884,['n'],0,left,['3'],4,303,[-0.01892888],78,47,medium,plus,dotcolour,alfa,,,100,18,V,R,
358,106,22,8,2,27,53,916,['n'],1,right,['2'],5,239,[-0.12709161],100,53,easy,plus,dotcolour,alfa,,,100,18,V,R,
359,107,23,8,2,36,44,4866,['c'],0,right,['3'],4,284,[0.01680263],76,44,hard,plus,dotcolour,alfa,,,100,18,V,R,
360,108,24,8,2,33,47,1017,['n'],1,right,['2'],5,385,[-0.02873289],84,47,medium,plus,dotcolour,alfa,,,100,18,V,R,
361,109,25,8,2,27,53,2883,['n'],1,right,['2'],5,256,[-0.13222949],100,53,easy,plus,dotcolour,alfa,,,100,18,V,R,
362,110,26,8,2,36,44,784,['n'],1,right,['2'],5,247,[-0.13329104],100,44,hard,plus,dotcolour,alfa,,,100,18,V,R,
363,111,27,8,2,53,27,1218,['c'],1,left,['2'],5,982,[0.21387924],100,53,easy,plus,dotcolour,alfa,,,100,18,V,R,
364,112,28,8,2,53,27,1333,['n'],0,left,['3'],4,307,[-0.0255206],84,53,easy,plus,dotcolour,alfa,,,100,18,V,R,
365,113,29,8,2,47,33,883,['c'],1,left,['3'],4,436,[0.07518789],98,47,medium,plus,dotcolour,alfa,,,100,18,V,R,
366,114,30,8,2,33,47,933,['n'],1,right,['3'],4,207,[-0.0737382],100,47,medium,plus,dotcolour,alfa,,,100,18,V,R,
367,115,31,8,2,27,53,967,['n'],1,right,['2'],5,185,[-0.02623494],90,53,easy,plus,dotcolour,alfa,,,100,18,V,R,
368,116,32,8,2,53,27,800,['c'],1,left,['1'],6,315,[0.21569699],100,53,easy,plus,dotcolour,alfa,,,100,18,V,R,
369,117,33,8,2,53,27,734,['c'],1,left,['1'],6,227,[0.11842962],100,53,easy,plus,dotcolour,alfa,,,100,18,V,R,
370,118,34,8,2,33,47,1099,['n'],1,right,['2'],5,151,[-0.12106544],100,47,medium,plus,dotcolour,alfa,,,100,18,V,R,
371,119,35,8,2,36,44,1201,['n'],1,right,['2'],5,145,[-0.11144007],100,44,hard,plus,dotcolour,alfa,,,100,18,V,R,
372,120,36,8,2,47,33,767,['c'],1,left,['2'],5,190,[0.11614326],100,47,medium,plus,dotcolour,alfa,,,100,18,V,R,
373,121,37,8,2,44,36,1400,['c'],1,left,['2'],5,104,[0.03060163],97,44,hard,plus,dotcolour,alfa,,,100,18,V,R,
374,122,38,8,2,44,36,851,['c'],1,left,['2'],5,195,[0.09610116],100,44,hard,plus,dotcolour,alfa,,,100,18,V,R,
375,123,39,8,2,36,44,1000,['n'],1,right,['3'],4,244,[-0.08966562],100,44,hard,plus,dotcolour,alfa,,,100,18,V,R,
376,124,40,8,2,44,36,834,['n'],0,left,['3'],4,770,[-0.01390923],64,44,hard,plus,dotcolour,alfa,,,100,18,V,R,
377,125,41,8,2,36,44,1117,['n'],1,right,['3'],4,440,[-0.18513138],100,44,hard,plus,dotcolour,alfa,,,100,18,V,R,
378,0,0,9,3,53,27,834,['c'],1,left,['3'],4,285,[0.15189639],93,53,easy,minus,dotcolour,alfa,,,100,18,V,R,
379,1,1,9,3,27,53,717,['n'],1,right,['3'],4,318,[-0.02770077],61,53,easy,minus,dotcolour,alfa,,,100,18,V,R,
380,2,2,9,3,33,47,1316,['n'],1,right,['2'],5,630,[-0.22852622],93,47,medium,minus,dotcolour,alfa,,,100,18,V,R,
381,3,3,9,3,44,36,1016,['n'],0,left,['3'],4,390,[-0.06445505],72,44,hard,minus,dotcolour,alfa,,,100,18,V,R,
382,4,4,9,3,47,33,801,['c'],1,left,['3'],4,239,[0.13552211],92,47,medium,minus,dotcolour,alfa,,,100,18,V,R,
383,5,5,9,3,33,47,801,['n'],1,right,['2'],5,214,[-0.09083045],85,47,medium,minus,dotcolour,alfa,,,100,18,V,R,
384,6,6,9,3,27,53,783,['n'],1,right,['2'],5,1792,[-0.38091203],93,53,easy,minus,dotcolour,alfa,,,100,18,V,R,
385,7,7,9,3,53,27,733,['c'],1,left,['2'],5,284,[0.19495374],96,53,easy,minus,dotcolour,alfa,,,100,18,V,R,
386,8,8,9,3,44,36,817,['n'],0,left,['2'],5,281,[-0.15679692],93,44,hard,minus,dotcolour,alfa,,,100,18,V,R,
387,9,9,9,3,53,27,1066,['c'],1,left,['3'],4,205,[0.13785908],94,53,easy,minus,dotcolour,alfa,,,100,18,V,R,
388,10,10,9,3,44,36,884,['n'],0,left,['3'],4,266,[-0.11852819],89,44,hard,minus,dotcolour,alfa,,,100,18,V,R,
389,11,11,9,3,36,44,1001,['n'],1,right,['2'],5,497,[0.05288384],34,44,hard,minus,dotcolour,alfa,,,100,18,V,R,
390,12,12,9,3,33,47,967,['n'],1,right,['3'],4,208,[-0.07176554],80,47,medium,minus,dotcolour,alfa,,,100,18,V,R,
391,13,13,9,3,47,33,1083,['c'],1,left,['3'],4,238,[0.09271781],85,47,medium,minus,dotcolour,alfa,,,100,18,V,R,
392,14,14,9,3,36,44,666,['n'],1,right,['3'],4,275,[-0.02680707],61,44,hard,minus,dotcolour,alfa,,,100,18,V,R,
393,15,15,9,3,27,53,767,['n'],1,right,['3'],4,202,[-0.12942917],93,53,easy,minus,dotcolour,alfa,,,100,18,V,R,
394,16,16,9,3,44,36,1000,['n'],0,left,['3'],4,147,[-0.04291989],73,44,hard,minus,dotcolour,alfa,,,100,18,V,R,
395,17,17,9,3,47,33,766,['c'],1,left,['3'],4,272,[0.13630912],91,47,medium,minus,dotcolour,alfa,,,100,18,V,R,
396,18,18,9,3,27,53,767,['n'],1,right,['2'],5,239,[-0.08580553],83,53,easy,minus,dotcolour,alfa,,,100,18,V,R,
397,19,19,9,3,47,33,1000,['c'],1,left,['3'],4,166,[0.09968039],90,47,medium,minus,dotcolour,alfa,,,100,18,V,R,
398,20,20,9,3,44,36,1267,['c'],1,left,['2'],5,655,[0.17847624],88,44,hard,minus,dotcolour,alfa,,,100,18,V,R,
399,21,21,9,3,27,53,834,['n'],1,right,['2'],5,300,[-0.18467509],95,53,easy,minus,dotcolour,alfa,,,100,18,V,R,
400,22,22,9,3,36,44,1000,['n'],1,right,['3'],4,306,[-0.14363512],91,44,hard,minus,dotcolour,alfa,,,100,18,V,R,
401,23,23,9,3,27,53,784,['n'],1,right,['2'],5,1327,[-0.28004868],90,53,easy,minus,dotcolour,alfa,,,100,18,V,R,
402,24,24,9,3,47,33,900,['c'],1,left,['2'],5,311,[-0.00727819],47,47,medium,minus,dotcolour,alfa,,,100,18,V,R,
403,25,25,9,3,36,44,966,['n'],1,right,['3'],4,533,[-0.13815996],85,44,hard,minus,dotcolour,alfa,,,100,18,V,R,
404,26,26,9,3,53,27,1117,['c'],1,left,['2'],5,348,[0.08687127],79,53,easy,minus,dotcolour,alfa,,,100,18,V,R,
405,27,27,9,3,44,36,1500,['c'],1,left,['3'],4,956,[0.03079882],57,44,hard,minus,dotcolour,alfa,,,100,18,V,R,
406,28,28,9,3,33,47,1017,['n'],1,right,['3'],4,774,[-0.10608253],75,47,medium,minus,dotcolour,alfa,,,100,18,V,R,
407,29,29,9,3,33,47,1217,['c'],0,right,['3'],4,1143,[-0.04039105],42,47,medium,minus,dotcolour,alfa,,,100,18,V,R,
408,30,30,9,3,33,47,1017,['n'],1,right,['3'],4,538,[-0.27039188],97,47,medium,minus,dotcolour,alfa,,,100,18,V,R,
409,31,31,9,3,47,33,1000,['c'],1,left,['3'],4,333,[0.145774],91,47,medium,minus,dotcolour,alfa,,,100,18,V,R,
410,32,32,9,3,53,27,1717,['c'],1,left,['3'],4,460,[0.11136475],81,53,easy,minus,dotcolour,alfa,,,100,18,V,R,
411,33,33,9,3,47,33,1683,['n'],0,left,['3'],4,191,[-0.07493131],82,47,medium,minus,dotcolour,alfa,,,100,18,V,R,
412,34,34,9,3,53,27,1083,['c'],1,left,['3'],4,293,[0.08436655],80,53,easy,minus,dotcolour,alfa,,,100,18,V,R,
413,35,35,9,3,36,44,1017,['n'],1,right,['3'],4,250,[0.03018228],37,44,hard,minus,dotcolour,alfa,,,100,18,V,R,
414,36,36,9,3,44,36,1183,['c'],1,left,['3'],4,354,[0.09613336],81,44,hard,minus,dotcolour,alfa,,,100,18,V,R,
415,37,37,9,3,33,47,3200,['n'],1,right,['3'],4,286,[-0.05945659],73,47,medium,minus,dotcolour,alfa,,,100,18,V,R,
416,38,38,9,3,27,53,1033,['n'],1,right,['2'],5,403,[-0.05622082],69,53,easy,minus,dotcolour,alfa,,,100,18,V,R,
417,39,39,9,3,36,44,950,['n'],1,right,['2'],5,222,[-0.11664787],90,44,hard,minus,dotcolour,alfa,,,100,18,V,R,
418,40,40,9,3,36,44,1466,['c'],0,right,['2'],5,380,[0.08280597],77,44,hard,minus,dotcolour,alfa,,,100,18,V,R,
419,41,41,9,3,53,27,967,['c'],1,left,['3'],4,1023,[0.3739912],97,53,easy,minus,dotcolour,alfa,,,100,18,V,R,
420,42,0,10,3,33,47,733,['n'],1,right,['2'],5,616,[-0.19382775],90,47,medium,minus,dotcolour,alfa,,,100,18,V,R,
421,43,1,10,3,53,27,784,['c'],1,left,['2'],5,482,[0.08156714],74,53,easy,minus,dotcolour,alfa,,,100,18,V,R,
422,44,2,10,3,44,36,1150,['n'],0,left,['3'],4,266,[-0.11616005],88,44,hard,minus,dotcolour,alfa,,,100,18,V,R,
423,45,3,10,3,53,27,784,['c'],1,left,['2'],5,362,[0.12987308],87,53,easy,minus,dotcolour,alfa,,,100,18,V,R,
424,46,4,10,3,53,27,834,['c'],1,left,['1'],6,674,[0.17878872],88,53,easy,minus,dotcolour,alfa,,,100,18,V,R,
425,47,5,10,3,47,33,1017,['c'],1,left,['3'],4,344,[0.07056069],75,47,medium,minus,dotcolour,alfa,,,100,18,V,R,
426,48,6,10,3,36,44,1000,['n'],1,right,['3'],4,243,[-0.0528292],72,44,hard,minus,dotcolour,alfa,,,100,18,V,R,
427,49,7,10,3,27,53,949,['n'],1,right,['2'],5,221,[-0.0748818],81,53,easy,minus,dotcolour,alfa,,,100,18,V,R,
428,50,8,10,3,33,47,2117,['n'],1,right,['2'],5,225,[-0.1295869],92,47,medium,minus,dotcolour,alfa,,,100,18,V,R,
429,51,9,10,3,53,27,832,['c'],1,left,['3'],4,408,[0.08385491],77,53,easy,minus,dotcolour,alfa,,,100,18,V,R,
430,52,10,10,3,44,36,983,['c'],1,left,['3'],4,209,[0.14426251],94,44,hard,minus,dotcolour,alfa,,,100,18,V,R,
431,53,11,10,3,33,47,934,['n'],1,right,['3'],4,188,[-0.08868781],86,47,medium,minus,dotcolour,alfa,,,100,18,V,R,
432,54,12,10,3,33,47,800,['n'],1,right,['3'],4,215,[-0.13608537],93,47,medium,minus,dotcolour,alfa,,,100,18,V,R,
433,55,13,10,3,27,53,850,['n'],1,right,['2'],5,429,[-0.15031544],89,53,easy,minus,dotcolour,alfa,,,100,18,V,R,
434,56,14,10,3,47,33,950,['n'],0,left,['1'],6,263,[-0.07537119],79,47,medium,minus,dotcolour,alfa,,,100,18,V,R,
435,57,15,10,3,47,33,1233,['c'],1,left,['3'],4,180,[0.07221644],82,47,medium,minus,dotcolour,alfa,,,100,18,V,R,
436,58,16,10,3,44,36,983,['c'],1,left,['3'],4,199,[0.07009342],80,44,hard,minus,dotcolour,alfa,,,100,18,V,R,
437,59,17,10,3,47,33,2300,['c'],1,left,['8'],3,188,[0.09719372],88,47,medium,minus,dotcolour,alfa,,,100,18,V,R,
438,60,18,10,3,36,44,900,['n'],1,right,['8'],3,266,[-0.05095825],71,44,hard,minus,dotcolour,alfa,,,100,18,V,R,
439,61,19,10,3,27,53,1367,['n'],1,right,['2'],5,426,[-0.19018923],93,53,easy,minus,dotcolour,alfa,,,100,18,V,R,
440,62,20,10,3,33,47,866,['n'],1,right,['3'],4,135,[-0.10917234],94,47,medium,minus,dotcolour,alfa,,,100,18,V,R,
441,63,21,10,3,33,47,1484,['n'],1,right,['3'],4,313,[-0.09270107],82,47,medium,minus,dotcolour,alfa,,,100,18,V,R,
442,64,22,10,3,36,44,1685,['n'],1,right,['3'],4,241,[0.02092705],41,44,hard,minus,dotcolour,alfa,,,100,18,V,R,
443,65,23,10,3,36,44,2333,['n'],1,right,['8'],3,211,[-0.12558691],92,44,hard,minus,dotcolour,alfa,,,100,18,V,R,
444,66,24,10,3,36,44,1150,['n'],1,right,['8'],3,278,[0.03734905],35,44,hard,minus,dotcolour,alfa,,,100,18,V,R,
445,67,25,10,3,27,53,1052,['n'],1,right,['3'],4,162,[-0.12784395],95,53,easy,minus,dotcolour,alfa,,,100,18,V,R,
446,68,26,10,3,47,33,833,['c'],1,left,['2'],5,292,[0.14076088],91,47,medium,minus,dotcolour,alfa,,,100,18,V,R,
447,69,27,10,3,33,47,766,['n'],1,right,['2'],5,219,[-0.10141808],88,47,medium,minus,dotcolour,alfa,,,100,18,V,R,
448,70,28,10,3,44,36,1018,['n'],0,left,['2'],5,218,[0.02162704],40,44,hard,minus,dotcolour,alfa,,,100,18,V,R,
449,71,29,10,3,47,33,1317,['n'],0,left,['3'],4,182,[-0.12108257],93,47,medium,minus,dotcolour,alfa,,,100,18,V,R,
450,72,30,10,3,36,44,1417,['c'],0,right,['3'],4,743,[-0.04165889],39,44,hard,minus,dotcolour,alfa,,,100,18,V,R,
451,73,31,10,3,47,33,834,['c'],1,left,['3'],4,153,[0.08725244],88,47,medium,minus,dotcolour,alfa,,,100,18,V,R,
452,74,32,10,3,36,44,1717,['n'],1,right,['2'],5,360,[-0.07900304],77,44,hard,minus,dotcolour,alfa,,,100,18,V,R,
453,75,33,10,3,27,53,800,['n'],1,right,['2'],5,187,[-0.12635949],93,53,easy,minus,dotcolour,alfa,,,100,18,V,R,
454,76,34,10,3,44,36,1017,['c'],1,left,['3'],4,364,[0.1577908],91,44,hard,minus,dotcolour,alfa,,,100,18,V,R,
455,77,35,10,3,27,53,683,['n'],1,right,['3'],4,500,[-0.17806981],91,53,easy,minus,dotcolour,alfa,,,100,18,V,R,
456,78,36,10,3,53,27,1834,['c'],1,left,['3'],4,536,[0.15815546],87,53,easy,minus,dotcolour,alfa,,,100,18,V,R,
457,79,37,10,3,44,36,2150,['n'],0,left,['3'],4,262,[0.03599291],35,44,hard,minus,dotcolour,alfa,,,100,18,V,R,
458,80,38,10,3,44,36,1333,['c'],1,left,['3'],4,287,[0.10944125],86,44,hard,minus,dotcolour,alfa,,,100,18,V,R,
459,81,39,10,3,27,53,1184,['n'],1,right,['3'],4,278,[0.00979776],46,53,easy,minus,dotcolour,alfa,,,100,18,V,R,
460,82,40,10,3,53,27,1366,['n'],0,left,['8'],3,925,[0.06869001],34,53,easy,minus,dotcolour,alfa,,,100,18,V,R,
461,83,41,10,3,53,27,1067,['c'],1,left,['3'],4,342,[0.12653685],88,53,easy,minus,dotcolour,alfa,,,100,18,V,R,
462,84,0,11,3,36,44,1051,['n'],1,right,['8'],3,687,[-0.10974424],77,44,hard,minus,dotcolour,alfa,,,100,18,V,R,
463,85,1,11,3,44,36,1850,['c'],1,left,['3'],4,235,[0.1087406],88,44,hard,minus,dotcolour,alfa,,,100,18,V,R,
464,86,2,11,3,36,44,767,['n'],1,right,['3'],4,172,[-0.00255865],51,44,hard,minus,dotcolour,alfa,,,100,18,V,R,
465,87,3,11,3,44,36,1301,['c'],1,left,['2'],5,531,[0.04480045],63,44,hard,minus,dotcolour,alfa,,,100,18,V,R,
466,88,4,11,3,44,36,1551,['c'],1,left,['3'],4,209,[0.07258653],81,44,hard,minus,dotcolour,alfa,,,100,18,V,R,
467,89,5,11,3,36,44,884,['n'],1,right,['3'],4,142,[-0.02434877],64,44,hard,minus,dotcolour,alfa,,,100,18,V,R,
468,90,6,11,3,47,33,1067,['c'],1,left,['3'],4,135,[0.05849902],81,47,medium,minus,dotcolour,alfa,,,100,18,V,R,
469,91,7,11,3,53,27,1283,['c'],1,left,['3'],4,151,[0.14041959],96,53,easy,minus,dotcolour,alfa,,,100,18,V,R,
470,92,8,11,3,27,53,851,['n'],1,right,['2'],5,185,[-0.11532959],92,53,easy,minus,dotcolour,alfa,,,100,18,V,R,
471,93,9,11,3,53,27,717,['c'],1,left,['2'],5,270,[0.13581541],91,53,easy,minus,dotcolour,alfa,,,100,18,V,R,
472,94,10,11,3,47,33,1167,['n'],0,left,['2'],5,230,[-0.03050033],64,47,medium,minus,dotcolour,alfa,,,100,18,V,R,
473,95,11,11,3,53,27,883,['c'],1,left,['3'],4,155,[0.12004236],94,53,easy,minus,dotcolour,alfa,,,100,18,V,R,
474,96,12,11,3,27,53,850,['n'],1,right,['2'],5,932,[-0.13610547],78,53,easy,minus,dotcolour,alfa,,,100,18,V,R,
475,97,13,11,3,53,27,1683,['c'],1,left,['3'],4,524,[0.18136961],91,53,easy,minus,dotcolour,alfa,,,100,18,V,R,
476,98,14,11,3,27,53,683,['n'],1,right,['3'],4,270,[-0.15677595],94,53,easy,minus,dotcolour,alfa,,,100,18,V,R,
477,99,15,11,3,44,36,884,['n'],0,left,['2'],5,201,[-0.10752343],90,44,hard,minus,dotcolour,alfa,,,100,18,V,R,
478,100,16,11,3,53,27,867,['c'],1,left,['2'],5,256,[0.09681153],85,53,easy,minus,dotcolour,alfa,,,100,18,V,R,
479,101,17,11,3,47,33,834,['c'],1,left,['2'],5,205,[0.08494496],84,47,medium,minus,dotcolour,alfa,,,100,18,V,R,
480,102,18,11,3,33,47,1617,['c'],0,right,['3'],4,469,[-0.10491065],20,47,medium,minus,dotcolour,alfa,,,100,18,V,R,
481,103,19,11,3,47,33,2067,['n'],0,left,['9'],2,442,[0.02532838],42,47,medium,minus,dotcolour,alfa,,,100,18,V,R,
482,104,20,11,3,36,44,2335,['n'],1,right,['8'],3,643,[-0.18993011],89,44,hard,minus,dotcolour,alfa,,,100,18,V,R,
483,105,21,11,3,47,33,1433,['c'],1,left,['3'],4,555,[0.1258328],82,47,medium,minus,dotcolour,alfa,,,100,18,V,R,
484,106,22,11,3,27,53,850,['n'],1,right,['1'],6,298,[-0.16246642],94,53,easy,minus,dotcolour,alfa,,,100,18,V,R,
485,107,23,11,3,27,53,4617,['n'],1,right,['0'],1,271,[-0.07111932],77,53,easy,minus,dotcolour,alfa,,,100,18,V,R,
486,108,24,11,3,44,36,1183,['c'],1,left,['3'],4,390,[0.12796144],86,44,hard,minus,dotcolour,alfa,,,100,18,V,R,
487,109,25,11,3,27,53,917,['n'],1,right,['2'],5,643,[-0.39309888],99,53,easy,minus,dotcolour,alfa,,,100,18,V,R,
488,110,26,11,3,33,47,4500,['n'],1,right,['0'],1,1238,[-0.23203392],87,47,medium,minus,dotcolour,alfa,,,100,18,V,R,
489,111,27,11,3,33,47,1167,['n'],1,right,['3'],4,567,[-0.12922265],82,47,medium,minus,dotcolour,alfa,,,100,18,V,R,
490,112,28,11,3,53,27,2383,['c'],1,left,['3'],4,314,[-0.02719704],39,53,easy,minus,dotcolour,alfa,,,100,18,V,R,
491,113,29,11,3,47,33,967,['c'],1,left,['3'],4,320,[0.08243213],79,47,medium,minus,dotcolour,alfa,,,100,18,V,R,
492,114,30,11,3,33,47,1367,['n'],1,right,['3'],4,367,[-0.21103454],96,47,medium,minus,dotcolour,alfa,,,100,18,V,R,
493,115,31,11,3,33,47,833,['n'],1,right,['3'],4,328,[-0.16231727],93,47,medium,minus,dotcolour,alfa,,,100,18,V,R,
494,116,32,11,3,36,44,917,['n'],1,right,['2'],5,312,[-0.11580773],87,44,hard,minus,dotcolour,alfa,,,100,18,V,R,
495,117,33,11,3,36,44,750,['n'],1,right,['2'],5,342,[-0.09627426],81,44,hard,minus,dotcolour,alfa,,,100,18,V,R,
496,118,34,11,3,53,27,1067,['c'],1,left,['3'],4,327,[0.22339614],97,53,easy,minus,dotcolour,alfa,,,100,18,V,R,
497,119,35,11,3,44,36,1034,['c'],1,left,['3'],4,321,[0.02009614],58,44,hard,minus,dotcolour,alfa,,,100,18,V,R,
498,120,36,11,3,27,53,917,['n'],1,right,['2'],5,369,[-0.16074019],92,53,easy,minus,dotcolour,alfa,,,100,18,V,R,
499,121,37,11,3,44,36,935,['c'],1,left,['2'],5,391,[0.1317651],87,44,hard,minus,dotcolour,alfa,,,100,18,V,R,
500,122,38,11,3,47,33,1034,['c'],1,left,['3'],4,287,[0.15130273],93,47,medium,minus,dotcolour,alfa,,,100,18,V,R,
501,123,39,11,3,33,47,1000,['n'],1,right,['3'],4,229,[-0.09925124],87,47,medium,minus,dotcolour,alfa,,,100,18,V,R,
502,124,40,11,3,36,44,1367,['n'],1,right,['8'],3,422,[-0.0530197],68,44,hard,minus,dotcolour,alfa,,,100,18,V,R,
503,125,41,11,3,33,47,982,['n'],1,right,['2'],5,167,[-0.03749403],70,47,medium,minus,dotcolour,alfa,,,100,18,V,R,
504,0,0,12,4,53,27,934,['c'],1,left,['3'],4,280,[0.10486301],100,53,easy,plus,dotcolour,alfa,,,100,18,V,R,
505,1,1,12,4,47,33,933,['c'],1,left,['3'],4,112,[0.04544749],99,47,medium,plus,dotcolour,alfa,,,100,18,V,R,
506,2,2,12,4,27,53,967,['n'],1,right,['2'],5,190,[-0.13648115],100,53,easy,plus,dotcolour,alfa,,,100,18,V,R,
507,3,3,12,4,53,27,734,['c'],1,left,['2'],5,107,[0.11071803],100,53,easy,plus,dotcolour,alfa,,,100,18,V,R,
508,4,4,12,4,44,36,1084,['c'],1,left,['3'],4,196,[0.03978194],96,44,hard,plus,dotcolour,alfa,,,100,18,V,R,
509,5,5,12,4,53,27,834,['c'],1,left,['3'],4,156,[0.17599427],100,53,easy,plus,dotcolour,alfa,,,100,18,V,R,
510,6,6,12,4,53,27,1816,['c'],1,left,['3'],4,95,[0.12262545],100,53,easy,plus,dotcolour,alfa,,,100,18,V,R,
511,7,7,12,4,36,44,800,['n'],1,right,['2'],5,204,[-0.09392915],100,44,hard,plus,dotcolour,alfa,,,100,18,V,R,
512,8,8,12,4,44,36,867,['n'],0,left,['2'],5,139,[-0.03983321],98,44,hard,plus,dotcolour,alfa,,,100,18,V,R,
513,9,9,12,4,47,33,13200,['n'],0,left,['0'],1,239,[-0.0849409],100,47,medium,plus,dotcolour,alfa,,,100,18,V,R,
514,10,10,12,4,36,44,917,['n'],1,right,['2'],5,338,[-0.09164306],100,44,hard,plus,dotcolour,alfa,,,100,18,V,R,
515,11,11,12,4,27,53,700,['n'],1,right,['2'],5,394,[-0.08256795],99,53,easy,plus,dotcolour,alfa,,,100,18,V,R,
516,12,12,12,4,47,33,1317,['c'],1,left,['2'],5,359,[0.10607928],100,47,medium,plus,dotcolour,alfa,,,100,18,V,R,
517,13,13,12,4,47,33,684,['c'],1,left,['3'],4,350,[0.13560304],100,47,medium,plus,dotcolour,alfa,,,100,18,V,R,
518,14,14,12,4,36,44,718,['c'],0,right,['3'],4,164,[0.06930258],100,44,hard,plus,dotcolour,alfa,,,100,18,V,R,
519,15,15,12,4,36,44,983,['n'],1,right,['3'],4,280,[-0.15721241],100,44,hard,plus,dotcolour,alfa,,,100,18,V,R,
520,16,16,12,4,27,53,867,['n'],1,right,['2'],5,179,[-0.15974257],100,53,easy,plus,dotcolour,alfa,,,100,18,V,R,
521,17,17,12,4,44,36,1300,['c'],1,left,['2'],5,241,[0.0372771],94,44,hard,plus,dotcolour,alfa,,,100,18,V,R,
522,18,18,12,4,27,53,718,['n'],1,right,['2'],5,156,[-0.03984036],97,53,easy,plus,dotcolour,alfa,,,100,18,V,R,
523,19,19,12,4,33,47,667,['n'],1,right,['2'],5,181,[-0.08225996],100,47,medium,plus,dotcolour,alfa,,,100,18,V,R,
524,20,20,12,4,33,47,1600,['n'],1,right,['3'],4,327,[-0.09329772],100,47,medium,plus,dotcolour,alfa,,,100,18,V,R,
525,21,21,12,4,47,33,799,['n'],0,left,['3'],4,131,[-0.07672735],100,47,medium,plus,dotcolour,alfa,,,100,18,V,R,
526,22,22,12,4,53,27,816,['c'],1,left,['3'],4,174,[0.11122175],100,53,easy,plus,dotcolour,alfa,,,100,18,V,R,
527,23,23,12,4,36,44,1250,['c'],0,right,['2'],5,326,[0.10640152],100,44,hard,plus,dotcolour,alfa,,,100,18,V,R,
528,24,24,12,4,36,44,1967,['c'],0,right,['3'],4,203,[0.11920988],100,44,hard,plus,dotcolour,alfa,,,100,18,V,R,
529,25,25,12,4,47,33,866,['n'],0,left,['3'],4,218,[-0.09030937],100,47,medium,plus,dotcolour,alfa,,,100,18,V,R,
530,26,26,12,4,47,33,2017,['n'],0,left,['3'],4,130,[-0.0644873],100,47,medium,plus,dotcolour,alfa,,,100,18,V,R,
531,27,27,12,4,27,53,834,['n'],1,right,['2'],5,269,[-0.1164035],100,53,easy,plus,dotcolour,alfa,,,100,18,V,R,
532,28,28,12,4,33,47,718,['n'],1,right,['1'],6,174,[-0.18270818],100,47,medium,plus,dotcolour,alfa,,,100,18,V,R,
533,29,29,12,4,33,47,700,['n'],1,right,['1'],6,156,[-0.10620767],100,47,medium,plus,dotcolour,alfa,,,100,18,V,R,
534,30,30,12,4,33,47,750,['n'],1,right,['1'],6,129,[-0.07612131],100,47,medium,plus,dotcolour,alfa,,,100,18,V,R,
535,31,31,12,4,44,36,967,['n'],0,left,['3'],4,687,[-0.04287289],87,44,hard,plus,dotcolour,alfa,,,100,18,V,R,
536,32,32,12,4,53,27,834,['c'],1,left,['3'],4,123,[0.09044567],100,53,easy,plus,dotcolour,alfa,,,100,18,V,R,
537,33,33,12,4,27,53,1567,['n'],1,right,['3'],4,345,[-0.11104923],100,53,easy,plus,dotcolour,alfa,,,100,18,V,R,
538,34,34,12,4,53,27,700,['c'],1,left,['3'],4,192,[0.10228076],100,53,easy,plus,dotcolour,alfa,,,100,18,V,R,
539,35,35,12,4,27,53,884,['n'],1,right,['3'],4,462,[-0.17176921],100,53,easy,plus,dotcolour,alfa,,,100,18,V,R,
540,36,36,12,4,33,47,2433,['n'],1,right,['9'],2,419,[-0.28316672],100,47,medium,plus,dotcolour,alfa,,,100,18,V,R,
541,37,37,12,4,36,44,1751,['c'],0,right,['8'],3,494,[0.06902666],97,44,hard,plus,dotcolour,alfa,,,100,18,V,R,
542,38,38,12,4,44,36,966,['c'],1,left,['8'],3,573,[0.07402442],97,44,hard,plus,dotcolour,alfa,,,100,18,V,R,
543,39,39,12,4,33,47,967,['n'],1,right,['3'],4,128,[-0.07839681],100,47,medium,plus,dotcolour,alfa,,,100,18,V,R,
544,40,40,12,4,44,36,1400,['c'],1,left,['3'],4,396,[0.0973173],100,44,hard,plus,dotcolour,alfa,,,100,18,V,R,
545,41,41,12,4,44,36,901,['n'],0,left,['3'],4,241,[-0.0876944],100,44,hard,plus,dotcolour,alfa,,,100,18,V,R,
546,42,0,13,4,44,36,1284,['c'],1,left,['3'],4,403,[0.19990373],100,44,hard,plus,dotcolour,alfa,,,100,18,V,R,
547,43,1,13,4,44,36,1017,['n'],0,left,['3'],4,307,[-0.11996603],100,44,hard,plus,dotcolour,alfa,,,100,18,V,R,
548,44,2,13,4,27,53,1067,['n'],1,right,['1'],6,390,[-0.14799727],100,53,easy,plus,dotcolour,alfa,,,100,18,V,R,
549,45,3,13,4,36,44,1500,['n'],1,right,['3'],4,539,[-0.03192819],83,44,hard,plus,dotcolour,alfa,,,100,18,V,R,
550,46,4,13,4,47,33,1017,['c'],1,left,['3'],4,205,[0.11835465],100,47,medium,plus,dotcolour,alfa,,,100,18,V,R,
551,47,5,13,4,44,36,5401,['n'],0,left,['0'],1,247,[-0.11082768],100,44,hard,plus,dotcolour,alfa,,,100,18,V,R,
552,48,6,13,4,27,53,834,['n'],1,right,['1'],6,413,[-0.07796636],99,53,easy,plus,dotcolour,alfa,,,100,18,V,R,
553,49,7,13,4,33,47,1034,['c'],0,right,['3'],4,260,[-0.00548037],40,47,medium,plus,dotcolour,alfa,,,100,18,V,R,
554,50,8,13,4,44,36,2550,['c'],1,left,['3'],4,1102,[0.3190635],100,44,hard,plus,dotcolour,alfa,,,100,18,V,R,
555,51,9,13,4,47,33,2150,['c'],1,left,['3'],4,308,[0.06593128],99,47,medium,plus,dotcolour,alfa,,,100,18,V,R,
556,52,10,13,4,47,33,1050,['c'],1,left,['3'],4,158,[0.09919786],100,47,medium,plus,dotcolour,alfa,,,100,18,V,R,
557,53,11,13,4,33,47,3051,['n'],1,right,['8'],3,135,[-0.15923139],100,47,medium,plus,dotcolour,alfa,,,100,18,V,R,
558,54,12,13,4,27,53,851,['n'],1,right,['1'],6,449,[-0.05044113],94,53,easy,plus,dotcolour,alfa,,,100,18,V,R,
559,55,13,13,4,33,47,950,['n'],1,right,['2'],5,170,[-0.12145619],100,47,medium,plus,dotcolour,alfa,,,100,18,V,R,
560,56,14,13,4,27,53,818,['n'],1,right,['2'],5,189,[-0.10188276],100,53,easy,plus,dotcolour,alfa,,,100,18,V,R,
561,57,15,13,4,36,44,966,['c'],0,right,['2'],5,504,[-0.14405767],0,44,hard,plus,dotcolour,alfa,,,100,18,V,R,
562,58,16,13,4,47,33,5383,['n'],0,left,['3'],4,413,[-0.05228849],95,47,medium,plus,dotcolour,alfa,,,100,18,V,R,
563,59,17,13,4,44,36,1434,['n'],0,left,['3'],4,189,[0.00622742],37,44,hard,plus,dotcolour,alfa,,,100,18,V,R,
564,60,18,13,4,27,53,5567,['n'],1,right,['3'],4,232,[-0.11987098],100,53,easy,plus,dotcolour,alfa,,,100,18,V,R,
565,61,19,13,4,33,47,983,['n'],1,right,['3'],4,312,[-0.15150785],100,47,medium,plus,dotcolour,alfa,,,100,18,V,R,
566,62,20,13,4,53,27,917,['c'],1,left,['2'],5,289,[0.1576633],100,53,easy,plus,dotcolour,alfa,,,100,18,V,R,
567,63,21,13,4,53,27,1000,['c'],1,left,['2'],5,326,[0.1196299],100,53,easy,plus,dotcolour,alfa,,,100,18,V,R,
568,64,22,13,4,36,44,1167,['c'],0,right,['2'],5,308,[0.00775592],62,44,hard,plus,dotcolour,alfa,,,100,18,V,R,
569,65,23,13,4,53,27,1149,['c'],1,left,['1'],6,530,[0.13794413],100,53,easy,plus,dotcolour,alfa,,,100,18,V,R,
570,66,24,13,4,53,27,1250,['c'],1,left,['3'],4,156,[0.09748612],100,53,easy,plus,dotcolour,alfa,,,100,18,V,R,
571,67,25,13,4,53,27,734,['c'],1,left,['3'],4,82,[0.08224236],100,53,easy,plus,dotcolour,alfa,,,100,18,V,R,
572,68,26,13,4,47,33,1799,['c'],1,left,['8'],3,169,[0.07033328],100,47,medium,plus,dotcolour,alfa,,,100,18,V,R,
573,69,27,13,4,33,47,1533,['n'],1,right,['3'],4,334,[-0.09072807],100,47,medium,plus,dotcolour,alfa,,,100,18,V,R,
574,70,28,13,4,33,47,767,['n'],1,right,['3'],4,259,[-0.03130699],90,47,medium,plus,dotcolour,alfa,,,100,18,V,R,
575,71,29,13,4,47,33,950,['c'],1,left,['3'],4,212,[0.0868924],100,47,medium,plus,dotcolour,alfa,,,100,18,V,R,
576,72,30,13,4,36,44,1117,['n'],1,right,['3'],4,264,[-0.050923],97,44,hard,plus,dotcolour,alfa,,,100,18,V,R,
577,73,31,13,4,33,47,1150,['n'],1,right,['2'],5,208,[-0.06997346],100,47,medium,plus,dotcolour,alfa,,,100,18,V,R,
578,74,32,13,4,53,27,884,['c'],1,left,['2'],5,310,[0.0565375],97,53,easy,plus,dotcolour,alfa,,,100,18,V,R,
579,75,33,13,4,44,36,1484,['c'],1,left,['3'],4,391,[0.09187186],99,44,hard,plus,dotcolour,alfa,,,100,18,V,R,
580,76,34,13,4,47,33,850,['c'],1,left,['3'],4,134,[0.11073825],100,47,medium,plus,dotcolour,alfa,,,100,18,V,R,
581,77,35,13,4,36,44,799,['n'],1,right,['3'],4,250,[-0.06276306],99,44,hard,plus,dotcolour,alfa,,,100,18,V,R,
582,78,36,13,4,36,44,850,['n'],1,right,['3'],4,520,[-0.12515173],100,44,hard,plus,dotcolour,alfa,,,100,18,V,R,
583,79,37,13,4,27,53,817,['n'],1,right,['2'],5,452,[-0.10788851],100,53,easy,plus,dotcolour,alfa,,,100,18,V,R,
584,80,38,13,4,44,36,1017,['c'],1,left,['3'],4,354,[0.05984261],97,44,hard,plus,dotcolour,alfa,,,100,18,V,R,
585,81,39,13,4,36,44,1667,['n'],1,right,['1'],6,683,[-0.02387919],74,44,hard,plus,dotcolour,alfa,,,100,18,V,R,
586,82,40,13,4,27,53,900,['n'],1,right,['2'],5,308,[-0.10108725],100,53,easy,plus,dotcolour,alfa,,,100,18,V,R,
587,83,41,13,4,53,27,783,['c'],1,left,['2'],5,242,[0.17138131],100,53,easy,plus,dotcolour,alfa,,,100,18,V,R,
588,84,0,14,4,44,36,1135,['c'],1,left,['3'],4,197,[0.05647504],99,44,hard,plus,dotcolour,alfa,,,100,18,V,R,
589,85,1,14,4,36,44,918,['n'],1,right,['3'],4,161,[-0.07256415],100,44,hard,plus,dotcolour,alfa,,,100,18,V,R,
590,86,2,14,4,44,36,700,['c'],1,left,['3'],4,152,[0.05936116],100,44,hard,plus,dotcolour,alfa,,,100,18,V,R,
591,87,3,14,4,44,36,1085,['c'],1,left,['3'],4,152,[0.02755748],93,44,hard,plus,dotcolour,alfa,,,100,18,V,R,
592,88,4,14,4,33,47,901,['n'],1,right,['3'],4,191,[-0.04276051],97,47,medium,plus,dotcolour,alfa,,,100,18,V,R,
593,89,5,14,4,53,27,850,['c'],1,left,['2'],5,151,[0.10003074],100,53,easy,plus,dotcolour,alfa,,,100,18,V,R,
594,90,6,14,4,47,33,1567,['n'],0,left,['8'],3,292,[-0.12159796],100,47,medium,plus,dotcolour,alfa,,,100,18,V,R,
595,91,7,14,4,36,44,800,['n'],1,right,['2'],5,368,[0.06352478],2,44,hard,plus,dotcolour,alfa,,,100,18,V,R,
596,92,8,14,4,27,53,1650,['n'],1,right,['3'],4,137,[-0.08232704],100,53,easy,plus,dotcolour,alfa,,,100,18,V,R,
597,93,9,14,4,47,33,1617,['c'],1,left,['3'],4,140,[0.06476318],100,47,medium,plus,dotcolour,alfa,,,100,18,V,R,
598,94,10,14,4,47,33,784,['c'],1,left,['3'],4,105,[0.07704967],100,47,medium,plus,dotcolour,alfa,,,100,18,V,R,
599,95,11,14,4,27,53,984,['n'],1,right,['2'],5,527,[-0.19051094],100,53,easy,plus,dotcolour,alfa,,,100,18,V,R,
600,96,12,14,4,33,47,700,['n'],1,right,['2'],5,175,[-0.0455336],98,47,medium,plus,dotcolour,alfa,,,100,18,V,R,
601,97,13,14,4,36,44,868,['n'],1,right,['2'],5,150,[-0.12028386],100,44,hard,plus,dotcolour,alfa,,,100,18,V,R,
602,98,14,14,4,36,44,1434,['n'],1,right,['3'],4,384,[-0.08499842],99,44,hard,plus,dotcolour,alfa,,,100,18,V,R,
603,99,15,14,4,44,36,1600,['c'],1,left,['3'],4,354,[0.09610162],100,44,hard,plus,dotcolour,alfa,,,100,18,V,R,
604,100,16,14,4,27,53,734,['n'],1,right,['3'],4,344,[-0.09607767],100,53,easy,plus,dotcolour,alfa,,,100,18,V,R,
605,101,17,14,4,53,27,733,['c'],1,left,['3'],4,319,[0.06616432],99,53,easy,plus,dotcolour,alfa,,,100,18,V,R,
606,102,18,14,4,47,33,850,['c'],1,left,['3'],4,146,[0.11973247],100,47,medium,plus,dotcolour,alfa,,,100,18,V,R,
607,103,19,14,4,44,36,1417,['c'],1,left,['3'],4,196,[0.16498811],100,44,hard,plus,dotcolour,alfa,,,100,18,V,R,
608,104,20,14,4,36,44,950,['n'],1,right,['3'],4,207,[-0.06869249],100,44,hard,plus,dotcolour,alfa,,,100,18,V,R,
609,105,21,14,4,27,53,1118,['n'],1,right,['2'],5,235,[-0.20972636],100,53,easy,plus,dotcolour,alfa,,,100,18,V,R,
610,106,22,14,4,33,47,1117,['n'],1,right,['2'],5,238,[-0.05871094],99,47,medium,plus,dotcolour,alfa,,,100,18,V,R,
611,107,23,14,4,47,33,1300,['c'],1,left,['3'],4,66,[0.11131404],100,47,medium,plus,dotcolour,alfa,,,100,18,V,R,
612,108,24,14,4,44,36,1367,['c'],1,left,['3'],4,154,[0.08732777],100,44,hard,plus,dotcolour,alfa,,,100,18,V,R,
613,109,25,14,4,53,27,1450,['c'],1,left,['2'],5,748,[0.10519574],99,53,easy,plus,dotcolour,alfa,,,100,18,V,R,
614,110,26,14,4,33,47,1234,['c'],0,right,['2'],5,254,[0.15071108],100,47,medium,plus,dotcolour,alfa,,,100,18,V,R,
615,111,27,14,4,53,27,683,['c'],1,left,['2'],5,194,[0.12310612],100,53,easy,plus,dotcolour,alfa,,,100,18,V,R,
616,112,28,14,4,36,44,1000,['n'],1,right,['2'],5,291,[-0.01126696],68,44,hard,plus,dotcolour,alfa,,,100,18,V,R,
617,113,29,14,4,27,53,817,['n'],1,right,['2'],5,496,[-0.04406521],90,53,easy,plus,dotcolour,alfa,,,100,18,V,R,
618,114,30,14,4,27,53,2034,['n'],1,right,['3'],4,564,[-0.0624088],95,53,easy,plus,dotcolour,alfa,,,100,18,V,R,
619,115,31,14,4,53,27,933,['c'],1,left,['3'],4,217,[0.11565233],100,53,easy,plus,dotcolour,alfa,,,100,18,V,R,
620,116,32,14,4,47,33,900,['c'],1,left,['3'],4,110,[0.09845164],100,47,medium,plus,dotcolour,alfa,,,100,18,V,R,
621,117,33,14,4,36,44,1049,['c'],0,right,['3'],4,409,[0.02795861],83,44,hard,plus,dotcolour,alfa,,,100,18,V,R,
622,118,34,14,4,33,47,982,['n'],1,right,['2'],5,251,[-0.14054896],100,47,medium,plus,dotcolour,alfa,,,100,18,V,R,
623,119,35,14,4,53,27,8884,['n'],0,left,['9'],2,518,[-0.02458463],77,53,easy,plus,dotcolour,alfa,,,100,18,V,R,
624,120,36,14,4,44,36,1201,['c'],1,left,['3'],4,186,[0.09014775],100,44,hard,plus,dotcolour,alfa,,,100,18,V,R,
625,121,37,14,4,47,33,616,['c'],1,left,['2'],5,172,[0.08539694],100,47,medium,plus,dotcolour,alfa,,,100,18,V,R,
626,122,38,14,4,27,53,866,['n'],1,right,['2'],5,196,[-0.04048133],96,53,easy,plus,dotcolour,alfa,,,100,18,V,R,
627,123,39,14,4,33,47,850,['n'],1,right,['2'],5,187,[-0.10101972],100,47,medium,plus,dotcolour,alfa,,,100,18,V,R,
628,124,40,14,4,33,47,733,['n'],1,right,['2'],5,152,[-0.06698549],100,47,medium,plus,dotcolour,alfa,,,100,18,V,R,
629,125,41,14,4,53,27,1400,['c'],1,left,['2'],5,259,[0.10602053],100,53,easy,plus,dotcolour,alfa,,,100,18,V,R,
630,0,0,15,5,44,36,1084,['c'],1,left,['2'],5,236,[0.05699091],74,44,hard,minus,dotcolour,alfa,,,100,18,V,R,
631,1,1,15,5,36,44,1200,['n'],1,right,['2'],5,564,[-0.08691165],74,44,hard,minus,dotcolour,alfa,,,100,18,V,R,
632,2,2,15,5,27,53,783,['n'],1,right,['1'],6,239,[-0.07121214],79,53,easy,minus,dotcolour,alfa,,,100,18,V,R,
633,3,3,15,5,53,27,950,['c'],1,left,['2'],5,209,[0.14449511],95,53,easy,minus,dotcolour,alfa,,,100,18,V,R,
634,4,4,15,5,36,44,1683,['n'],1,right,['2'],5,150,[-0.06265222],81,44,hard,minus,dotcolour,alfa,,,100,18,V,R,
635,5,5,15,5,36,44,800,['n'],1,right,['2'],5,210,[-0.08960932],85,44,hard,minus,dotcolour,alfa,,,100,18,V,R,
636,6,6,15,5,27,53,767,['n'],1,right,['2'],5,139,[-0.11036151],93,53,easy,minus,dotcolour,alfa,,,100,18,V,R,
637,7,7,15,5,47,33,900,['c'],1,left,['2'],5,195,[0.04996773],73,47,medium,minus,dotcolour,alfa,,,100,18,V,R,
638,8,8,15,5,33,47,900,['n'],1,right,['2'],5,192,[-0.05672624],76,47,medium,minus,dotcolour,alfa,,,100,18,V,R,
639,9,9,15,5,53,27,1550,['c'],1,left,['2'],5,731,[0.29079331],96,53,easy,minus,dotcolour,alfa,,,100,18,V,R,
640,10,10,15,5,44,36,1000,['n'],0,left,['3'],4,711,[-0.03722722],60,44,hard,minus,dotcolour,alfa,,,100,18,V,R,
641,11,11,15,5,36,44,982,['n'],1,right,['3'],4,606,[-0.09922657],76,44,hard,minus,dotcolour,alfa,,,100,18,V,R,
642,12,12,15,5,36,44,882,['n'],1,right,['3'],4,195,[-0.0274566],64,44,hard,minus,dotcolour,alfa,,,100,18,V,R,
643,13,13,15,5,47,33,750,['c'],1,left,['2'],5,502,[0.02955904],59,47,medium,minus,dotcolour,alfa,,,100,18,V,R,
644,14,14,15,5,47,33,783,['c'],1,left,['3'],4,203,[0.08074525],83,47,medium,minus,dotcolour,alfa,,,100,18,V,R,
645,15,15,15,5,44,36,967,['c'],1,left,['3'],4,142,[0.09204198],90,44,hard,minus,dotcolour,alfa,,,100,18,V,R,
646,16,16,15,5,33,47,783,['n'],1,right,['3'],4,250,[-0.12013652],90,47,medium,minus,dotcolour,alfa,,,100,18,V,R,
647,17,17,15,5,44,36,1284,['c'],1,left,['3'],4,278,[0.07544763],78,44,hard,minus,dotcolour,alfa,,,100,18,V,R,
648,18,18,15,5,27,53,967,['n'],1,right,['3'],4,181,[-0.09019534],87,53,easy,minus,dotcolour,alfa,,,100,18,V,R,
649,19,19,15,5,44,36,1716,['n'],0,left,['3'],4,211,[-0.03429085],66,44,hard,minus,dotcolour,alfa,,,100,18,V,R,
650,20,20,15,5,53,27,1117,['c'],1,left,['3'],4,79,[0.09686729],96,53,easy,minus,dotcolour,alfa,,,100,18,V,R,
651,21,21,15,5,33,47,1983,['n'],1,right,['3'],4,205,[-0.11105244],90,47,medium,minus,dotcolour,alfa,,,100,18,V,R,
652,22,22,15,5,33,47,1817,['n'],1,right,['0'],1,286,[-0.19876166],97,47,medium,minus,dotcolour,alfa,,,100,18,V,R,
653,23,23,15,5,47,33,933,['c'],1,left,['3'],4,111,[0.06799414],86,47,medium,minus,dotcolour,alfa,,,100,18,V,R,
654,24,24,15,5,36,44,767,['n'],1,right,['3'],4,181,[-0.10315494],90,44,hard,minus,dotcolour,alfa,,,100,18,V,R,
655,25,25,15,5,33,47,1017,['n'],1,right,['3'],4,238,[-0.16841165],96,47,medium,minus,dotcolour,alfa,,,100,18,V,R,
656,26,26,15,5,36,44,883,['n'],1,right,['3'],4,187,[-0.0586698],77,44,hard,minus,dotcolour,alfa,,,100,18,V,R,
657,27,27,15,5,53,27,1717,['n'],0,left,['3'],4,296,[0.04845549],31,53,easy,minus,dotcolour,alfa,,,100,18,V,R,
658,28,28,15,5,47,33,1650,['c'],1,left,['3'],4,228,[0.1218688],91,47,medium,minus,dotcolour,alfa,,,100,18,V,R,
659,29,29,15,5,44,36,1467,['n'],0,left,['8'],3,177,[0.01693353],41,44,hard,minus,dotcolour,alfa,,,100,18,V,R,
660,30,30,15,5,33,47,767,['n'],1,right,['8'],3,164,[-0.05119384],76,47,medium,minus,dotcolour,alfa,,,100,18,V,R,
661,31,31,15,5,53,27,1267,['c'],1,left,['2'],5,132,[0.1047699],93,53,easy,minus,dotcolour,alfa,,,100,18,V,R,
662,32,32,15,5,27,53,1700,['n'],1,right,['2'],5,261,[-0.1584757],94,53,easy,minus,dotcolour,alfa,,,100,18,V,R,
663,33,33,15,5,44,36,1083,['c'],1,left,['2'],5,768,[0.10036248],74,44,hard,minus,dotcolour,alfa,,,100,18,V,R,
664,34,34,15,5,47,33,867,['c'],1,left,['3'],4,232,[-0.06744797],22,47,medium,minus,dotcolour,alfa,,,100,18,V,R,
665,35,35,15,5,27,53,750,['n'],1,right,['2'],5,354,[-0.22197731],97,53,easy,minus,dotcolour,alfa,,,100,18,V,R,
666,36,36,15,5,53,27,901,['c'],1,left,['2'],5,242,[0.04670693],70,53,easy,minus,dotcolour,alfa,,,100,18,V,R,
667,37,37,15,5,27,53,1316,['n'],1,right,['2'],5,324,[-0.04908041],68,53,easy,minus,dotcolour,alfa,,,100,18,V,R,
668,38,38,15,5,47,33,784,['c'],1,left,['2'],5,161,[0.16279449],97,47,medium,minus,dotcolour,alfa,,,100,18,V,R,
669,39,39,15,5,33,47,784,['n'],1,right,['2'],5,252,[-0.1370309],92,47,medium,minus,dotcolour,alfa,,,100,18,V,R,
670,40,40,15,5,27,53,683,['n'],1,right,['2'],5,360,[-0.12780522],87,53,easy,minus,dotcolour,alfa,,,100,18,V,R,
671,41,41,15,5,53,27,767,['c'],1,left,['2'],5,212,[0.07698357],82,53,easy,minus,dotcolour,alfa,,,100,18,V,R,
672,42,0,16,5,27,53,918,['n'],1,right,['2'],5,223,[-0.10258589],88,53,easy,minus,dotcolour,alfa,,,100,18,V,R,
673,43,1,16,5,47,33,767,['c'],1,left,['2'],5,257,[0.17480546],96,47,medium,minus,dotcolour,alfa,,,100,18,V,R,
674,44,2,16,5,27,53,866,['n'],1,right,['2'],5,261,[-0.08776438],82,53,easy,minus,dotcolour,alfa,,,100,18,V,R,
675,45,3,16,5,44,36,984,['c'],1,left,['2'],5,172,[0.06912967],82,44,hard,minus,dotcolour,alfa,,,100,18,V,R,
676,46,4,16,5,53,27,983,['c'],1,left,['2'],5,247,[0.18464621],97,53,easy,minus,dotcolour,alfa,,,100,18,V,R,
677,47,5,16,5,44,36,717,['c'],1,left,['2'],5,210,[0.10740401],89,44,hard,minus,dotcolour,alfa,,,100,18,V,R,
678,48,6,16,5,33,47,867,['n'],1,right,['3'],4,424,[-0.20299101],94,47,medium,minus,dotcolour,alfa,,,100,18,V,R,
679,49,7,16,5,27,53,699,['n'],1,right,['2'],5,676,[-0.18254817],88,53,easy,minus,dotcolour,alfa,,,100,18,V,R,
680,50,8,16,5,44,36,2467,['c'],1,left,['3'],4,191,[0.08393298],85,44,hard,minus,dotcolour,alfa,,,100,18,V,R,
681,51,9,16,5,36,44,901,['n'],1,right,['3'],4,277,[-0.12142081],89,44,hard,minus,dotcolour,alfa,,,100,18,V,R,
682,52,10,16,5,33,47,767,['n'],1,right,['3'],4,204,[-0.05630841],75,47,medium,minus,dotcolour,alfa,,,100,18,V,R,
683,53,11,16,5,33,47,700,['n'],1,right,['3'],4,186,[-0.11757812],92,47,medium,minus,dotcolour,alfa,,,100,18,V,R,
684,54,12,16,5,44,36,1517,['c'],1,left,['3'],4,183,[0.03309685],67,44,hard,minus,dotcolour,alfa,,,100,18,V,R,
685,55,13,16,5,53,27,683,['c'],1,left,['3'],4,277,[0.12729218],90,53,easy,minus,dotcolour,alfa,,,100,18,V,R,
686,56,14,16,5,53,27,1218,['c'],1,left,['3'],4,195,[0.12822483],93,53,easy,minus,dotcolour,alfa,,,100,18,V,R,
687,57,15,16,5,36,44,833,['c'],0,right,['3'],4,203,[-0.03765092],32,44,hard,minus,dotcolour,alfa,,,100,18,V,R,
688,58,16,16,5,36,44,1950,['n'],1,right,['2'],5,414,[-0.07078468],73,44,hard,minus,dotcolour,alfa,,,100,18,V,R,
689,59,17,16,5,27,53,733,['n'],1,right,['2'],5,354,[-0.09143562],80,53,easy,minus,dotcolour,alfa,,,100,18,V,R,
690,60,18,16,5,47,33,834,['c'],1,left,['2'],5,276,[0.08004281],80,47,medium,minus,dotcolour,alfa,,,100,18,V,R,
691,61,19,16,5,27,53,1317,['n'],1,right,['2'],5,293,[-0.12499779],89,53,easy,minus,dotcolour,alfa,,,100,18,V,R,
692,62,20,16,5,47,33,1600,['c'],1,left,['3'],4,234,[-0.01219291],44,47,medium,minus,dotcolour,alfa,,,100,18,V,R,
693,63,21,16,5,27,53,1117,['n'],1,right,['2'],5,270,[-0.19979902],97,53,easy,minus,dotcolour,alfa,,,100,18,V,R,
694,64,22,16,5,36,44,1499,['n'],1,right,['3'],4,361,[-0.14068823],89,44,hard,minus,dotcolour,alfa,,,100,18,V,R,
695,65,23,16,5,47,33,2084,['n'],0,left,['3'],4,240,[-0.10252922],87,47,medium,minus,dotcolour,alfa,,,100,18,V,R,
696,66,24,16,5,53,27,1217,['n'],0,left,['3'],4,198,[-0.07167383],81,53,easy,minus,dotcolour,alfa,,,100,18,V,R,
697,67,25,16,5,33,47,600,['n'],1,right,['3'],4,136,[-0.10180744],92,47,medium,minus,dotcolour,alfa,,,100,18,V,R,
698,68,26,16,5,47,33,1233,['c'],1,left,['3'],4,370,[0.21091845],96,47,medium,minus,dotcolour,alfa,,,100,18,V,R,
699,69,27,16,5,44,36,784,['n'],0,left,['3'],4,310,[-0.03763401],65,44,hard,minus,dotcolour,alfa,,,100,18,V,R,
700,70,28,16,5,33,47,717,['n'],1,right,['3'],4,262,[-0.07611443],79,47,medium,minus,dotcolour,alfa,,,100,18,V,R,
701,71,29,16,5,27,53,667,['n'],1,right,['2'],5,466,[-0.04342489],64,53,easy,minus,dotcolour,alfa,,,100,18,V,R,
702,72,30,16,5,36,44,1050,['n'],1,right,['2'],5,295,[-0.09207376],82,44,hard,minus,dotcolour,alfa,,,100,18,V,R,
703,73,31,16,5,53,27,1034,['c'],1,left,['2'],5,371,[0.06356086],72,53,easy,minus,dotcolour,alfa,,,100,18,V,R,
704,74,32,16,5,53,27,700,['c'],1,left,['2'],5,281,[0.25457167],99,53,easy,minus,dotcolour,alfa,,,100,18,V,R,
705,75,33,16,5,44,36,1284,['n'],0,left,['8'],3,300,[-0.07525199],77,44,hard,minus,dotcolour,alfa,,,100,18,V,R,
706,76,34,16,5,47,33,1017,['c'],1,left,['3'],4,641,[-0.0274473],42,47,medium,minus,dotcolour,alfa,,,100,18,V,R,
707,77,35,16,5,36,44,900,['n'],1,right,['2'],5,428,[0.01307287],46,44,hard,minus,dotcolour,alfa,,,100,18,V,R,
708,78,36,16,5,33,47,1083,['n'],1,right,['2'],5,137,[-0.07248789],85,47,medium,minus,dotcolour,alfa,,,100,18,V,R,
709,79,37,16,5,33,47,1018,['n'],1,right,['9'],2,276,[-0.10649457],86,47,medium,minus,dotcolour,alfa,,,100,18,V,R,
710,80,38,16,5,47,33,1234,['c'],1,left,['2'],5,144,[0.10756867],93,47,medium,minus,dotcolour,alfa,,,100,18,V,R,
711,81,39,16,5,44,36,1266,['c'],1,left,['3'],4,274,[0.09120541],83,44,hard,minus,dotcolour,alfa,,,100,18,V,R,
712,82,40,16,5,53,27,717,['c'],1,left,['3'],4,155,[0.0489036],75,53,easy,minus,dotcolour,alfa,,,100,18,V,R,
713,83,41,16,5,36,44,3950,['n'],1,right,['8'],3,840,[-0.04560918],61,44,hard,minus,dotcolour,alfa,,,100,18,V,R,
714,84,0,17,5,47,33,2967,['n'],0,left,['0'],1,234,[-0.02201167],60,47,medium,minus,dotcolour,alfa,,,100,18,V,R,
715,85,1,17,5,47,33,816,['c'],1,left,['3'],4,465,[0.05454688],67,47,medium,minus,dotcolour,alfa,,,100,18,V,R,
716,86,2,17,5,27,53,917,['n'],1,right,['1'],6,259,[-0.05051242],71,53,easy,minus,dotcolour,alfa,,,100,18,V,R,
717,87,3,17,5,47,33,984,['c'],1,left,['3'],4,339,[0.12154712],87,47,medium,minus,dotcolour,alfa,,,100,18,V,R,
718,88,4,17,5,36,44,1100,['n'],1,right,['8'],3,362,[-0.06069075],71,44,hard,minus,dotcolour,alfa,,,100,18,V,R,
719,89,5,17,5,53,27,835,['c'],1,left,['2'],5,260,[0.06664375],76,53,easy,minus,dotcolour,alfa,,,100,18,V,R,
720,90,6,17,5,53,27,700,['c'],1,left,['2'],5,294,[0.06311501],74,53,easy,minus,dotcolour,alfa,,,100,18,V,R,
721,91,7,17,5,53,27,750,['c'],1,left,['2'],5,341,[0.14029155],90,53,easy,minus,dotcolour,alfa,,,100,18,V,R,
722,92,8,17,5,44,36,901,['n'],0,left,['2'],5,341,[-0.12003241],86,44,hard,minus,dotcolour,alfa,,,100,18,V,R,
723,93,9,17,5,53,27,1284,['c'],1,left,['2'],5,277,[0.10440135],86,53,easy,minus,dotcolour,alfa,,,100,18,V,R,
724,94,10,17,5,53,27,651,['c'],1,left,['2'],5,233,[0.17691192],96,53,easy,minus,dotcolour,alfa,,,100,18,V,R,
725,95,11,17,5,44,36,1801,['n'],0,left,['3'],4,529,[0.02087616],44,44,hard,minus,dotcolour,alfa,,,100,18,V,R,
726,96,12,17,5,33,47,766,['n'],1,right,['2'],5,407,[-0.1077642],82,47,medium,minus,dotcolour,alfa,,,100,18,V,R,
727,97,13,17,5,33,47,1099,['n'],1,right,['2'],5,187,[-0.05526502],76,47,medium,minus,dotcolour,alfa,,,100,18,V,R,
728,98,14,17,5,36,44,1282,['n'],1,right,['3'],4,145,[-0.04196657],73,44,hard,minus,dotcolour,alfa,,,100,18,V,R,
729,99,15,17,5,36,44,733,['n'],1,right,['3'],4,232,[-0.07192351],79,44,hard,minus,dotcolour,alfa,,,100,18,V,R,
730,100,16,17,5,27,53,966,['n'],1,right,['2'],5,386,[-0.04312733],65,53,easy,minus,dotcolour,alfa,,,100,18,V,R,
731,101,17,17,5,44,36,1166,['n'],0,left,['2'],5,316,[-0.15496444],92,44,hard,minus,dotcolour,alfa,,,100,18,V,R,
732,102,18,17,5,27,53,967,['n'],1,right,['2'],5,322,[-0.21661522],97,53,easy,minus,dotcolour,alfa,,,100,18,V,R,
733,103,19,17,5,47,33,683,['c'],1,left,['2'],5,291,[0.07581342],78,47,medium,minus,dotcolour,alfa,,,100,18,V,R,
734,104,20,17,5,44,36,1167,['n'],0,left,['3'],4,570,[-0.03250511],60,44,hard,minus,dotcolour,alfa,,,100,18,V,R,
735,105,21,17,5,47,33,751,['n'],0,left,['3'],4,310,[-0.02678664],61,47,medium,minus,dotcolour,alfa,,,100,18,V,R,
736,106,22,17,5,47,33,1134,['c'],1,left,['3'],4,278,[0.05478918],72,47,medium,minus,dotcolour,alfa,,,100,18,V,R,
737,107,23,17,5,27,53,1250,['n'],1,right,['3'],4,258,[-0.16788843],95,53,easy,minus,dotcolour,alfa,,,100,18,V,R,
738,108,24,17,5,53,27,850,['c'],1,left,['3'],4,207,[0.12173612],92,53,easy,minus,dotcolour,alfa,,,100,18,V,R,
739,109,25,17,5,36,44,882,['n'],1,right,['3'],4,236,[-0.06843289],78,44,hard,minus,dotcolour,alfa,,,100,18,V,R,
740,110,26,17,5,33,47,901,['c'],0,right,['3'],4,160,[0.08588597],87,47,medium,minus,dotcolour,alfa,,,100,18,V,R,
741,111,27,17,5,44,36,984,['c'],1,left,['3'],4,27,[0.04496481],92,44,hard,minus,dotcolour,alfa,,,100,18,V,R,
742,112,28,17,5,36,44,1017,['n'],1,right,['2'],5,434,[-0.20930192],95,44,hard,minus,dotcolour,alfa,,,100,18,V,R,
743,113,29,17,5,44,36,1017,['n'],0,left,['2'],5,274,[-0.10203196],85,44,hard,minus,dotcolour,alfa,,,100,18,V,R,
744,114,30,17,5,27,53,650,['n'],1,right,['2'],5,318,[-0.01269051],55,53,easy,minus,dotcolour,alfa,,,100,18,V,R,
745,115,31,17,5,47,33,1100,['c'],1,left,['2'],5,279,[-0.04257762],33,47,medium,minus,dotcolour,alfa,,,100,18,V,R,
746,116,32,17,5,33,47,1099,['n'],1,right,['3'],4,273,[-0.1347755],91,47,medium,minus,dotcolour,alfa,,,100,18,V,R,
747,117,33,17,5,44,36,1102,['c'],1,left,['3'],4,130,[0.12473602],96,44,hard,minus,dotcolour,alfa,,,100,18,V,R,
748,118,34,17,5,33,47,866,['n'],1,right,['2'],5,276,[-0.09924176],85,47,medium,minus,dotcolour,alfa,,,100,18,V,R,
749,119,35,17,5,33,47,817,['n'],1,right,['2'],5,210,[-0.10774844],89,47,medium,minus,dotcolour,alfa,,,100,18,V,R,
750,120,36,17,5,36,44,1017,['n'],1,right,['2'],5,289,[-0.12023164],88,44,hard,minus,dotcolour,alfa,,,100,18,V,R,
751,121,37,17,5,33,47,650,['n'],1,right,['2'],5,213,[-0.07228879],80,47,medium,minus,dotcolour,alfa,,,100,18,V,R,
752,122,38,17,5,36,44,1300,['n'],1,right,['3'],4,346,[-0.02513205],59,44,hard,minus,dotcolour,alfa,,,100,18,V,R,
753,123,39,17,5,27,53,651,['n'],1,right,['2'],5,267,[-0.14852545],93,53,easy,minus,dotcolour,alfa,,,100,18,V,R,
754,124,40,17,5,27,53,716,['n'],1,right,['2'],5,277,[-0.19246649],96,53,easy,minus,dotcolour,alfa,,,100,18,V,R,
755,125,41,17,5,53,27,2017,['n'],0,left,['0'],1,202,[-0.09257747],86,53,easy,minus,dotcolour,alfa,,,100,18,V,R,
,,,,,,,,,,,,,,,,,,,,,1,,100,18,V,R,
,,,,,,,,,,,,,,,,,,,,,2,['f'],100,18,V,R,
,,,,,,,,,,,,,,,,,,,,,3,['d'],100,18,V,R,
,,,,,,,,,,,,,,,,,,,,,5,['5'],100,18,V,R,
