trial,withinphasetrial,withinblocktrial,block,phase,dotsLeft,dotsRight,rt,resp,cor,cresp,conf_press,cj,RTconf,ev,fb,diff,difflevel,condition,task,manip,questionID,questionResp,sub,age,gender,handedness,
0,0,0,0,0,36,44,3617,['c'],0,right,['3'],4,3864,[-0.61853436],0,44,hard,plus,dotcolour,alfa,,,104,22,M,R,
1,1,1,0,0,33,47,1850,['n'],1,right,['2'],5,1218,[-0.20941187],100,47,medium,plus,dotcolour,alfa,,,104,22,M,R,
2,2,2,0,0,47,33,3582,['n'],0,left,['2'],5,3347,[0.39233646],0,47,medium,plus,dotcolour,alfa,,,104,22,M,R,
3,3,3,0,0,27,53,2184,['n'],1,right,['1'],6,1350,[-0.09301439],95,53,easy,plus,dotcolour,alfa,,,104,22,M,R,
4,4,4,0,0,44,36,1467,['c'],1,left,['3'],4,1246,[0.14163008],99,44,hard,plus,dotcolour,alfa,,,104,22,M,R,
5,5,5,0,0,53,27,1284,['c'],1,left,['1'],6,515,[0.11366696],100,53,easy,plus,dotcolour,alfa,,,104,22,M,R,
6,6,6,0,0,36,44,4568,['n'],1,right,['9'],2,1056,[-0.22267485],100,44,hard,plus,dotcolour,alfa,,,104,22,M,R,
7,7,7,0,0,27,53,1117,['n'],1,right,['2'],5,850,[-0.2343596],100,53,easy,plus,dotcolour,alfa,,,104,22,M,R,
8,8,8,0,0,44,36,2050,['c'],1,left,['2'],5,831,[0.03333217],79,44,hard,plus,dotcolour,alfa,,,104,22,M,R,
9,9,9,0,0,33,47,950,['n'],1,right,['9'],2,650,[-0.19592867],100,47,medium,plus,dotcolour,alfa,,,104,22,M,R,
10,10,10,0,0,47,33,1384,['c'],1,left,['1'],6,474,[0.03951877],89,47,medium,plus,dotcolour,alfa,,,104,22,M,R,
11,11,11,0,0,33,47,834,['n'],1,right,['9'],2,342,[-0.1318225],100,47,medium,plus,dotcolour,alfa,,,104,22,M,R,
12,12,12,0,0,27,53,1267,['n'],1,right,['1'],6,199,[-0.09546297],100,53,easy,plus,dotcolour,alfa,,,104,22,M,R,
13,13,13,0,0,53,27,1168,['c'],1,left,['1'],6,209,[-0.02445029],13,53,easy,plus,dotcolour,alfa,,,104,22,M,R,
14,14,14,0,0,53,27,1085,['c'],1,left,['1'],6,182,[0.10871373],100,53,easy,plus,dotcolour,alfa,,,104,22,M,R,
15,15,15,0,0,44,36,1233,['c'],1,left,['8'],3,312,[-0.0226223],19,44,hard,plus,dotcolour,alfa,,,104,22,M,R,
16,16,16,0,0,47,33,1150,['n'],0,left,['2'],5,1438,[0.0086089],44,47,medium,plus,dotcolour,alfa,,,104,22,M,R,
17,17,17,0,0,36,44,1966,['n'],1,right,['3'],4,719,[-0.17903545],100,44,hard,plus,dotcolour,alfa,,,104,22,M,R,
18,18,18,0,0,53,27,2483,['c'],1,left,['3'],4,591,[0.29633634],100,53,easy,plus,dotcolour,alfa,,,104,22,M,R,
19,19,19,0,0,36,44,1333,['n'],1,right,['3'],4,947,[-0.47122733],100,44,hard,plus,dotcolour,alfa,,,104,22,M,R,
20,20,20,0,0,44,36,1267,['c'],1,left,['3'],4,365,[0.07578202],99,44,hard,plus,dotcolour,alfa,,,104,22,M,R,
21,21,21,0,0,27,53,866,['n'],1,right,['2'],5,1189,[0.06717334],10,53,easy,plus,dotcolour,alfa,,,104,22,M,R,
22,22,22,0,0,36,44,1118,['n'],1,right,['2'],5,569,[-0.1230787],100,44,hard,plus,dotcolour,alfa,,,104,22,M,R,
23,23,23,0,0,47,33,1018,['c'],1,left,['1'],6,370,[0.12538343],100,47,medium,plus,dotcolour,alfa,,,104,22,M,R,
24,24,24,0,0,27,53,866,['n'],1,right,['1'],6,403,[-0.10982464],100,53,easy,plus,dotcolour,alfa,,,104,22,M,R,
25,25,25,0,0,47,33,1083,['c'],1,left,['3'],4,344,[0.04392511],94,47,medium,plus,dotcolour,alfa,,,104,22,M,R,
26,26,26,0,0,27,53,734,['n'],1,right,['1'],6,318,[-0.07634326],99,53,easy,plus,dotcolour,alfa,,,104,22,M,R,
27,27,27,0,0,53,27,1100,['c'],1,left,['2'],5,470,[0.22547733],100,53,easy,plus,dotcolour,alfa,,,104,22,M,R,
28,28,28,0,0,33,47,1467,['c'],0,right,['2'],5,386,[0.07529527],99,47,medium,plus,dotcolour,alfa,,,104,22,M,R,
29,29,29,0,0,33,47,716,['n'],1,right,['2'],5,440,[-0.11161217],100,47,medium,plus,dotcolour,alfa,,,104,22,M,R,
30,30,30,0,0,33,47,784,['n'],1,right,['1'],6,256,[-0.03366103],92,47,medium,plus,dotcolour,alfa,,,104,22,M,R,
31,31,31,0,0,27,53,650,['n'],1,right,['1'],6,172,[-0.05187812],99,53,easy,plus,dotcolour,alfa,,,104,22,M,R,
32,32,32,0,0,44,36,966,['c'],1,left,['3'],4,136,[0.12032481],100,44,hard,plus,dotcolour,alfa,,,104,22,M,R,
33,33,33,0,0,47,33,1250,['c'],1,left,['2'],5,218,[0.20228886],100,47,medium,plus,dotcolour,alfa,,,104,22,M,R,
34,34,34,0,0,53,27,668,['c'],1,left,['1'],6,176,[0.15093461],100,53,easy,plus,dotcolour,alfa,,,104,22,M,R,
35,35,35,0,0,44,36,800,['c'],1,left,['1'],6,122,[-0.00201757],45,44,hard,plus,dotcolour,alfa,,,104,22,M,R,
36,36,36,0,0,33,47,900,['n'],1,right,['2'],5,468,[-0.09169389],99,47,medium,plus,dotcolour,alfa,,,104,22,M,R,
37,37,37,0,0,44,36,1201,['c'],1,left,['2'],5,203,[0.09140571],100,44,hard,plus,dotcolour,alfa,,,104,22,M,R,
38,38,38,0,0,36,44,1050,['c'],0,right,['2'],5,257,[0.0057349],60,44,hard,plus,dotcolour,alfa,,,104,22,M,R,
39,39,39,0,0,53,27,750,['c'],1,left,['2'],5,378,[0.09131337],100,53,easy,plus,dotcolour,alfa,,,104,22,M,R,
40,40,40,0,0,36,44,866,['n'],1,right,['2'],5,298,[-0.13000755],100,44,hard,plus,dotcolour,alfa,,,104,22,M,R,
41,41,41,0,0,47,33,966,['c'],1,left,['1'],6,160,[0.10716162],100,47,medium,plus,dotcolour,alfa,,,104,22,M,R,
42,42,0,1,0,27,53,768,['n'],1,right,['1'],6,235,[-0.17084675],100,53,easy,plus,dotcolour,alfa,,,104,22,M,R,
43,43,1,1,0,27,53,583,['n'],1,right,['1'],6,148,[-0.08277409],100,53,easy,plus,dotcolour,alfa,,,104,22,M,R,
44,44,2,1,0,44,36,867,['c'],1,left,['1'],6,84,[0.08847673],100,44,hard,plus,dotcolour,alfa,,,104,22,M,R,
45,45,3,1,0,44,36,867,['n'],0,left,['3'],4,328,[-0.11787957],100,44,hard,plus,dotcolour,alfa,,,104,22,M,R,
46,46,4,1,0,27,53,733,['n'],1,right,['1'],6,176,[-0.02158474],86,53,easy,plus,dotcolour,alfa,,,104,22,M,R,
47,47,5,1,0,36,44,917,['c'],0,right,['2'],5,348,[0.15995805],100,44,hard,plus,dotcolour,alfa,,,104,22,M,R,
48,48,6,1,0,47,33,817,['c'],1,left,['1'],6,175,[0.07459046],100,47,medium,plus,dotcolour,alfa,,,104,22,M,R,
49,49,7,1,0,36,44,817,['n'],1,right,['2'],5,240,[-0.06520405],99,44,hard,plus,dotcolour,alfa,,,104,22,M,R,
50,50,8,1,0,47,33,900,['c'],1,left,['1'],6,132,[0.11498827],100,47,medium,plus,dotcolour,alfa,,,104,22,M,R,
51,51,9,1,0,33,47,784,['n'],1,right,['2'],5,273,[-0.06099254],99,47,medium,plus,dotcolour,alfa,,,104,22,M,R,
52,52,10,1,0,33,47,934,['n'],1,right,['1'],6,177,[-0.08146663],100,47,medium,plus,dotcolour,alfa,,,104,22,M,R,
53,53,11,1,0,53,27,634,['c'],1,left,['1'],6,123,[0.08742173],100,53,easy,plus,dotcolour,alfa,,,104,22,M,R,
54,54,12,1,0,53,27,650,['c'],1,left,['1'],6,116,[0.09815554],100,53,easy,plus,dotcolour,alfa,,,104,22,M,R,
55,55,13,1,0,33,47,634,['n'],1,right,['1'],6,176,[-0.01993488],85,47,medium,plus,dotcolour,alfa,,,104,22,M,R,
56,56,14,1,0,53,27,917,['c'],1,left,['1'],6,133,[0.10209742],100,53,easy,plus,dotcolour,alfa,,,104,22,M,R,
57,57,15,1,0,36,44,616,['n'],1,right,['2'],5,216,[-0.05619035],99,44,hard,plus,dotcolour,alfa,,,104,22,M,R,
58,58,16,1,0,44,36,1000,['n'],0,left,['8'],3,314,[0.02227906],19,44,hard,plus,dotcolour,alfa,,,104,22,M,R,
59,59,17,1,0,53,27,2433,['c'],1,left,['1'],6,221,[0.16917718],100,53,easy,plus,dotcolour,alfa,,,104,22,M,R,
60,60,18,1,0,36,44,934,['n'],1,right,['2'],5,152,[-0.14307129],100,44,hard,plus,dotcolour,alfa,,,104,22,M,R,
61,61,19,1,0,53,27,1001,['n'],0,left,['2'],5,243,[0.01380593],27,53,easy,plus,dotcolour,alfa,,,104,22,M,R,
62,62,20,1,0,44,36,1100,['n'],0,left,['3'],4,167,[-0.0936373],100,44,hard,plus,dotcolour,alfa,,,104,22,M,R,
63,63,21,1,0,33,47,717,['n'],1,right,['1'],6,245,[-0.15942473],100,47,medium,plus,dotcolour,alfa,,,104,22,M,R,
64,64,22,1,0,53,27,866,['c'],1,left,['2'],5,177,[0.02845776],92,53,easy,plus,dotcolour,alfa,,,104,22,M,R,
65,65,23,1,0,47,33,767,['n'],0,left,['3'],4,197,[0.03785978],4,47,medium,plus,dotcolour,alfa,,,104,22,M,R,
66,66,24,1,0,47,33,750,['c'],1,left,['2'],5,176,[0.13084953],100,47,medium,plus,dotcolour,alfa,,,104,22,M,R,
67,67,25,1,0,36,44,800,['n'],1,right,['2'],5,194,[0.01354682],25,44,hard,plus,dotcolour,alfa,,,104,22,M,R,
68,68,26,1,0,27,53,850,['n'],1,right,['1'],6,154,[-0.10468892],100,53,easy,plus,dotcolour,alfa,,,104,22,M,R,
69,69,27,1,0,36,44,1067,['c'],0,right,['1'],6,154,[0.05866597],100,44,hard,plus,dotcolour,alfa,,,104,22,M,R,
70,70,28,1,0,53,27,717,['c'],1,left,['1'],6,153,[0.10086309],100,53,easy,plus,dotcolour,alfa,,,104,22,M,R,
71,71,29,1,0,27,53,767,['n'],1,right,['1'],6,158,[-0.08853631],100,53,easy,plus,dotcolour,alfa,,,104,22,M,R,
72,72,30,1,0,33,47,850,['c'],0,right,['1'],6,110,[0.04758339],99,47,medium,plus,dotcolour,alfa,,,104,22,M,R,
73,73,31,1,0,33,47,1000,['n'],1,right,['2'],5,163,[-0.06079482],100,47,medium,plus,dotcolour,alfa,,,104,22,M,R,
74,74,32,1,0,27,53,717,['n'],1,right,['1'],6,145,[-0.05042195],99,53,easy,plus,dotcolour,alfa,,,104,22,M,R,
75,75,33,1,0,44,36,733,['c'],1,left,['1'],6,128,[0.04587238],99,44,hard,plus,dotcolour,alfa,,,104,22,M,R,
76,76,34,1,0,47,33,716,['c'],1,left,['1'],6,118,[0.06651289],100,47,medium,plus,dotcolour,alfa,,,104,22,M,R,
77,77,35,1,0,44,36,900,['c'],1,left,['1'],6,127,[0.0862107],100,44,hard,plus,dotcolour,alfa,,,104,22,M,R,
78,78,36,1,0,36,44,717,['n'],1,right,['2'],5,190,[-0.10997098],100,44,hard,plus,dotcolour,alfa,,,104,22,M,R,
79,79,37,1,0,27,53,1184,['c'],0,right,['1'],6,128,[0.04479858],99,53,easy,plus,dotcolour,alfa,,,104,22,M,R,
80,80,38,1,0,44,36,817,['c'],1,left,['1'],6,99,[0.09635227],100,44,hard,plus,dotcolour,alfa,,,104,22,M,R,
81,81,39,1,0,47,33,683,['c'],1,left,['1'],6,118,[0.08014532],100,47,medium,plus,dotcolour,alfa,,,104,22,M,R,
82,82,40,1,0,47,33,666,['c'],1,left,['1'],6,128,[0.06960199],100,47,medium,plus,dotcolour,alfa,,,104,22,M,R,
83,83,41,1,0,33,47,684,['n'],1,right,['1'],6,144,[-0.090079],100,47,medium,plus,dotcolour,alfa,,,104,22,M,R,
84,84,0,2,0,44,36,884,['c'],1,left,['1'],6,120,[0.00180891],55,44,hard,plus,dotcolour,alfa,,,104,22,M,R,
85,85,1,2,0,36,44,1833,['c'],0,right,['2'],5,187,[0.00138332],53,44,hard,plus,dotcolour,alfa,,,104,22,M,R,
86,86,2,2,0,44,36,1017,['c'],1,left,['3'],4,124,[0.06939795],100,44,hard,plus,dotcolour,alfa,,,104,22,M,R,
87,87,3,2,0,47,33,850,['n'],0,left,['3'],4,127,[-0.13363745],100,47,medium,plus,dotcolour,alfa,,,104,22,M,R,
88,88,4,2,0,27,53,1366,['c'],0,right,['0'],1,948,[-0.08095892],5,53,easy,plus,dotcolour,alfa,,,104,22,M,R,
89,89,5,2,0,53,27,1117,['c'],1,left,['1'],6,290,[0.15349194],100,53,easy,plus,dotcolour,alfa,,,104,22,M,R,
90,90,6,2,0,47,33,2083,['c'],1,left,['3'],4,140,[0.13587479],100,47,medium,plus,dotcolour,alfa,,,104,22,M,R,
91,91,7,2,0,33,47,716,['n'],1,right,['2'],5,259,[-0.22732267],100,47,medium,plus,dotcolour,alfa,,,104,22,M,R,
92,92,8,2,0,47,33,767,['c'],1,left,['1'],6,179,[0.07991892],100,47,medium,plus,dotcolour,alfa,,,104,22,M,R,
93,93,9,2,0,44,36,518,['n'],0,left,['3'],4,185,[-0.08130085],100,44,hard,plus,dotcolour,alfa,,,104,22,M,R,
94,94,10,2,0,53,27,700,['c'],1,left,['1'],6,207,[0.10671231],100,53,easy,plus,dotcolour,alfa,,,104,22,M,R,
95,95,11,2,0,27,53,599,['n'],1,right,['1'],6,160,[-0.03680544],96,53,easy,plus,dotcolour,alfa,,,104,22,M,R,
96,96,12,2,0,27,53,499,['n'],1,right,['1'],6,111,[-0.07108046],100,53,easy,plus,dotcolour,alfa,,,104,22,M,R,
97,97,13,2,0,36,44,868,['c'],0,right,['1'],6,136,[0.05148512],99,44,hard,plus,dotcolour,alfa,,,104,22,M,R,
98,98,14,2,0,27,53,700,['n'],1,right,['2'],5,136,[-0.02444705],92,53,easy,plus,dotcolour,alfa,,,104,22,M,R,
99,99,15,2,0,44,36,883,['n'],0,left,['2'],5,129,[-0.060908],100,44,hard,plus,dotcolour,alfa,,,104,22,M,R,
100,100,16,2,0,47,33,1084,['n'],0,left,['3'],4,706,[0.0240541],26,47,medium,plus,dotcolour,alfa,,,104,22,M,R,
101,101,17,2,0,44,36,1184,['n'],0,left,['1'],6,215,[-0.03571025],94,44,hard,plus,dotcolour,alfa,,,104,22,M,R,
102,102,18,2,0,36,44,650,['n'],1,right,['1'],6,358,[-0.02757053],84,44,hard,plus,dotcolour,alfa,,,104,22,M,R,
103,103,19,2,0,53,27,867,['c'],1,left,['2'],5,750,[0.19247136],100,53,easy,plus,dotcolour,alfa,,,104,22,M,R,
104,104,20,2,0,36,44,667,['n'],1,right,['9'],2,126,[-0.12402411],100,44,hard,plus,dotcolour,alfa,,,104,22,M,R,
105,105,21,2,0,53,27,1134,['c'],1,left,['1'],6,109,[0.14449992],100,53,easy,plus,dotcolour,alfa,,,104,22,M,R,
106,106,22,2,0,33,47,1000,['n'],1,right,['2'],5,186,[-0.08272377],100,47,medium,plus,dotcolour,alfa,,,104,22,M,R,
107,107,23,2,0,33,47,850,['n'],1,right,['2'],5,162,[-0.04934388],99,47,medium,plus,dotcolour,alfa,,,104,22,M,R,
108,108,24,2,0,36,44,700,['n'],1,right,['1'],6,152,[-0.129008],100,44,hard,plus,dotcolour,alfa,,,104,22,M,R,
109,109,25,2,0,33,47,750,['n'],1,right,['2'],5,214,[-0.11798996],100,47,medium,plus,dotcolour,alfa,,,104,22,M,R,
110,110,26,2,0,36,44,617,['n'],1,right,['1'],6,206,[-0.11061427],100,44,hard,plus,dotcolour,alfa,,,104,22,M,R,
111,111,27,2,0,36,44,633,['n'],1,right,['1'],6,149,[-0.04573455],99,44,hard,plus,dotcolour,alfa,,,104,22,M,R,
112,112,28,2,0,33,47,700,['c'],0,right,['1'],6,156,[0.06541163],100,47,medium,plus,dotcolour,alfa,,,104,22,M,R,
113,113,29,2,0,27,53,550,['n'],1,right,['1'],6,145,[-0.13561503],100,53,easy,plus,dotcolour,alfa,,,104,22,M,R,
114,114,30,2,0,53,27,600,['c'],1,left,['1'],6,125,[0.00277947],57,53,easy,plus,dotcolour,alfa,,,104,22,M,R,
115,115,31,2,0,33,47,666,['n'],1,right,['2'],5,230,[-0.10105456],100,47,medium,plus,dotcolour,alfa,,,104,22,M,R,
116,116,32,2,0,47,33,1032,['c'],1,left,['1'],6,101,[0.0705882],100,47,medium,plus,dotcolour,alfa,,,104,22,M,R,
117,117,33,2,0,53,27,750,['c'],1,left,['1'],6,164,[0.08863458],100,53,easy,plus,dotcolour,alfa,,,104,22,M,R,
118,118,34,2,0,47,33,3100,['n'],0,left,['1'],6,267,[-0.07078803],99,47,medium,plus,dotcolour,alfa,,,104,22,M,R,
119,119,35,2,0,44,36,817,['n'],0,left,['1'],6,129,[-0.05914139],100,44,hard,plus,dotcolour,alfa,,,104,22,M,R,
120,120,36,2,0,53,27,649,['c'],1,left,['1'],6,107,[0.04233052],99,53,easy,plus,dotcolour,alfa,,,104,22,M,R,
121,121,37,2,0,44,36,768,['c'],1,left,['2'],5,153,[0.04227703],98,44,hard,plus,dotcolour,alfa,,,104,22,M,R,
122,122,38,2,0,27,53,734,['n'],1,right,['1'],6,143,[-0.10521112],100,53,easy,plus,dotcolour,alfa,,,104,22,M,R,
123,123,39,2,0,47,33,717,['c'],1,left,['1'],6,149,[0.06859849],100,47,medium,plus,dotcolour,alfa,,,104,22,M,R,
124,124,40,2,0,33,47,650,['n'],1,right,['1'],6,199,[-0.10383269],100,47,medium,plus,dotcolour,alfa,,,104,22,M,R,
125,125,41,2,0,27,53,601,['n'],1,right,['1'],6,112,[-0.07846088],100,53,easy,plus,dotcolour,alfa,,,104,22,M,R,
126,0,0,3,1,27,53,735,['n'],1,right,['1'],6,175,[-0.03243535],67,53,easy,minus,dotcolour,alfa,,,104,22,M,R,
127,1,1,3,1,33,47,766,['n'],1,right,['1'],6,530,[-0.16310939],88,47,medium,minus,dotcolour,alfa,,,104,22,M,R,
128,2,2,3,1,27,53,650,['n'],1,right,['1'],6,189,[-0.09396426],87,53,easy,minus,dotcolour,alfa,,,104,22,M,R,
129,3,3,3,1,36,44,567,['n'],1,right,['2'],5,167,[-0.10127909],90,44,hard,minus,dotcolour,alfa,,,104,22,M,R,
130,4,4,3,1,53,27,900,['c'],1,left,['1'],6,151,[0.1120677],93,53,easy,minus,dotcolour,alfa,,,104,22,M,R,
131,5,5,3,1,47,33,583,['n'],0,left,['1'],6,130,[-0.10039903],92,47,medium,minus,dotcolour,alfa,,,104,22,M,R,
132,6,6,3,1,53,27,716,['c'],1,left,['1'],6,98,[0.11390575],96,53,easy,minus,dotcolour,alfa,,,104,22,M,R,
133,7,7,3,1,36,44,733,['n'],1,right,['1'],6,122,[-0.13010723],97,44,hard,minus,dotcolour,alfa,,,104,22,M,R,
134,8,8,3,1,44,36,766,['c'],1,left,['1'],6,88,[0.04096876],78,44,hard,minus,dotcolour,alfa,,,104,22,M,R,
135,9,9,3,1,33,47,784,['n'],1,right,['1'],6,142,[-0.10210123],92,47,medium,minus,dotcolour,alfa,,,104,22,M,R,
136,10,10,3,1,36,44,867,['n'],1,right,['1'],6,135,[-0.12414163],95,44,hard,minus,dotcolour,alfa,,,104,22,M,R,
137,11,11,3,1,27,53,566,['n'],1,right,['1'],6,100,[-0.13319368],98,53,easy,minus,dotcolour,alfa,,,104,22,M,R,
138,12,12,3,1,47,33,717,['c'],1,left,['1'],6,110,[0.10830059],95,47,medium,minus,dotcolour,alfa,,,104,22,M,R,
139,13,13,3,1,33,47,517,['n'],1,right,['1'],6,110,[-0.02889253],69,47,medium,minus,dotcolour,alfa,,,104,22,M,R,
140,14,14,3,1,33,47,600,['n'],1,right,['2'],5,130,[-0.09064249],91,47,medium,minus,dotcolour,alfa,,,104,22,M,R,
141,15,15,3,1,36,44,817,['n'],1,right,['1'],6,109,[-0.10219453],94,44,hard,minus,dotcolour,alfa,,,104,22,M,R,
142,16,16,3,1,53,27,684,['c'],1,left,['1'],6,94,[0.14699781],99,53,easy,minus,dotcolour,alfa,,,104,22,M,R,
143,17,17,3,1,44,36,834,['c'],1,left,['1'],6,235,[0.08858269],84,44,hard,minus,dotcolour,alfa,,,104,22,M,R,
144,18,18,3,1,33,47,667,['n'],1,right,['1'],6,128,[-0.0828145],89,47,medium,minus,dotcolour,alfa,,,104,22,M,R,
145,19,19,3,1,44,36,783,['c'],1,left,['1'],6,125,[0.02096517],63,44,hard,minus,dotcolour,alfa,,,104,22,M,R,
146,20,20,3,1,53,27,600,['c'],1,left,['1'],6,144,[0.14752141],97,53,easy,minus,dotcolour,alfa,,,104,22,M,R,
147,21,21,3,1,47,33,734,['n'],0,left,['1'],6,167,[-0.11107575],92,47,medium,minus,dotcolour,alfa,,,104,22,M,R,
148,22,22,3,1,36,44,767,['n'],1,right,['1'],6,179,[-0.06465475],80,44,hard,minus,dotcolour,alfa,,,104,22,M,R,
149,23,23,3,1,36,44,666,['n'],1,right,['1'],6,138,[-0.12012297],95,44,hard,minus,dotcolour,alfa,,,104,22,M,R,
150,24,24,3,1,53,27,633,['c'],1,left,['1'],6,125,[0.10935248],94,53,easy,minus,dotcolour,alfa,,,104,22,M,R,
151,25,25,3,1,44,36,983,['c'],1,left,['2'],5,354,[0.04856071],68,44,hard,minus,dotcolour,alfa,,,104,22,M,R,
152,26,26,3,1,27,53,716,['n'],1,right,['1'],6,120,[-0.09341152],92,53,easy,minus,dotcolour,alfa,,,104,22,M,R,
153,27,27,3,1,53,27,617,['c'],1,left,['1'],6,108,[0.115858],96,53,easy,minus,dotcolour,alfa,,,104,22,M,R,
154,28,28,3,1,27,53,601,['n'],1,right,['1'],6,113,[-0.04478592],77,53,easy,minus,dotcolour,alfa,,,104,22,M,R,
155,29,29,3,1,47,33,634,['c'],1,left,['2'],5,124,[0.09773557],92,47,medium,minus,dotcolour,alfa,,,104,22,M,R,
156,30,30,3,1,47,33,717,['c'],1,left,['2'],5,115,[0.05058999],79,47,medium,minus,dotcolour,alfa,,,104,22,M,R,
157,31,31,3,1,33,47,633,['n'],1,right,['1'],6,135,[-0.1145759],94,47,medium,minus,dotcolour,alfa,,,104,22,M,R,
158,32,32,3,1,44,36,1150,['n'],0,left,['3'],4,141,[-0.07074067],84,44,hard,minus,dotcolour,alfa,,,104,22,M,R,
159,33,33,3,1,27,53,600,['n'],1,right,['1'],6,104,[-0.06198639],85,53,easy,minus,dotcolour,alfa,,,104,22,M,R,
160,34,34,3,1,44,36,633,['n'],0,left,['2'],5,140,[-0.05567903],79,44,hard,minus,dotcolour,alfa,,,104,22,M,R,
161,35,35,3,1,33,47,683,['n'],1,right,['1'],6,116,[-0.08525765],90,47,medium,minus,dotcolour,alfa,,,104,22,M,R,
162,36,36,3,1,53,27,601,['n'],0,left,['2'],5,185,[-0.01585217],58,53,easy,minus,dotcolour,alfa,,,104,22,M,R,
163,37,37,3,1,47,33,683,['c'],1,left,['2'],5,96,[0.10723187],96,47,medium,minus,dotcolour,alfa,,,104,22,M,R,
164,38,38,3,1,47,33,916,['n'],0,left,['3'],4,752,[-0.08711817],71,47,medium,minus,dotcolour,alfa,,,104,22,M,R,
165,39,39,3,1,44,36,800,['n'],0,left,['8'],3,1147,[0.14140995],23,44,hard,minus,dotcolour,alfa,,,104,22,M,R,
166,40,40,3,1,27,53,1017,['n'],1,right,['2'],5,390,[-0.10067676],81,53,easy,minus,dotcolour,alfa,,,104,22,M,R,
167,41,41,3,1,36,44,633,['c'],0,right,['2'],5,150,[0.10712827],92,44,hard,minus,dotcolour,alfa,,,104,22,M,R,
168,42,0,4,1,47,33,1367,['c'],1,left,['1'],6,146,[0.07888799],87,47,medium,minus,dotcolour,alfa,,,104,22,M,R,
169,43,1,4,1,36,44,835,['n'],1,right,['1'],6,148,[-0.1562674],97,44,hard,minus,dotcolour,alfa,,,104,22,M,R,
170,44,2,4,1,33,47,684,['n'],1,right,['1'],6,117,[-0.10272809],94,47,medium,minus,dotcolour,alfa,,,104,22,M,R,
171,45,3,4,1,36,44,568,['n'],1,right,['1'],6,178,[-0.08519571],86,44,hard,minus,dotcolour,alfa,,,104,22,M,R,
172,46,4,4,1,53,27,800,['c'],1,left,['1'],6,125,[0.07370694],87,53,easy,minus,dotcolour,alfa,,,104,22,M,R,
173,47,5,4,1,33,47,600,['n'],1,right,['1'],6,120,[-0.0606077],83,47,medium,minus,dotcolour,alfa,,,104,22,M,R,
174,48,6,4,1,36,44,616,['n'],1,right,['1'],6,117,[-0.12470399],96,44,hard,minus,dotcolour,alfa,,,104,22,M,R,
175,49,7,4,1,27,53,566,['n'],1,right,['1'],6,91,[-0.02679202],69,53,easy,minus,dotcolour,alfa,,,104,22,M,R,
176,50,8,4,1,27,53,533,['n'],1,right,['1'],6,130,[-0.1370573],97,53,easy,minus,dotcolour,alfa,,,104,22,M,R,
177,51,9,4,1,53,27,583,['c'],1,left,['1'],6,103,[0.08194817],91,53,easy,minus,dotcolour,alfa,,,104,22,M,R,
178,52,10,4,1,44,36,750,['c'],1,left,['1'],6,126,[0.05671117],81,44,hard,minus,dotcolour,alfa,,,104,22,M,R,
179,53,11,4,1,53,27,817,['c'],1,left,['1'],6,170,[0.091268],88,53,easy,minus,dotcolour,alfa,,,104,22,M,R,
180,54,12,4,1,36,44,850,['c'],0,right,['1'],6,131,[0.09357194],91,44,hard,minus,dotcolour,alfa,,,104,22,M,R,
181,55,13,4,1,44,36,1083,['n'],0,left,['1'],6,139,[-0.10181832],92,44,hard,minus,dotcolour,alfa,,,104,22,M,R,
182,56,14,4,1,33,47,650,['n'],1,right,['1'],6,109,[-0.08466385],91,47,medium,minus,dotcolour,alfa,,,104,22,M,R,
183,57,15,4,1,53,27,650,['n'],0,left,['1'],6,216,[0.00309057],49,53,easy,minus,dotcolour,alfa,,,104,22,M,R,
184,58,16,4,1,47,33,716,['c'],1,left,['1'],6,188,[0.05561622],76,47,medium,minus,dotcolour,alfa,,,104,22,M,R,
185,59,17,4,1,27,53,733,['n'],1,right,['1'],6,129,[-0.13399453],97,53,easy,minus,dotcolour,alfa,,,104,22,M,R,
186,60,18,4,1,36,44,1417,['n'],1,right,['1'],6,180,[-0.08860591],87,44,hard,minus,dotcolour,alfa,,,104,22,M,R,
187,61,19,4,1,44,36,1367,['c'],1,left,['1'],6,216,[0.0452097],71,44,hard,minus,dotcolour,alfa,,,104,22,M,R,
188,62,20,4,1,53,27,733,['c'],1,left,['1'],6,115,[0.11168117],95,53,easy,minus,dotcolour,alfa,,,104,22,M,R,
189,63,21,4,1,47,33,1550,['n'],0,left,['2'],5,738,[-0.10641402],75,47,medium,minus,dotcolour,alfa,,,104,22,M,R,
190,64,22,4,1,47,33,884,['c'],1,left,['1'],6,98,[0.10977388],96,47,medium,minus,dotcolour,alfa,,,104,22,M,R,
191,65,23,4,1,33,47,700,['c'],0,right,['1'],6,587,[-0.04263055],38,47,medium,minus,dotcolour,alfa,,,104,22,M,R,
192,66,24,4,1,27,53,650,['n'],1,right,['1'],6,98,[-0.11433654],96,53,easy,minus,dotcolour,alfa,,,104,22,M,R,
193,67,25,4,1,44,36,850,['c'],1,left,['1'],6,117,[0.07246541],87,44,hard,minus,dotcolour,alfa,,,104,22,M,R,
194,68,26,4,1,27,53,633,['n'],1,right,['1'],6,105,[-0.109534],95,53,easy,minus,dotcolour,alfa,,,104,22,M,R,
195,69,27,4,1,36,44,650,['n'],1,right,['1'],6,100,[-0.08800701],92,44,hard,minus,dotcolour,alfa,,,104,22,M,R,
196,70,28,4,1,27,53,667,['n'],1,right,['1'],6,71,[-0.07936513],94,53,easy,minus,dotcolour,alfa,,,104,22,M,R,
197,71,29,4,1,44,36,1768,['c'],1,left,['3'],4,231,[0.01201167],56,44,hard,minus,dotcolour,alfa,,,104,22,M,R,
198,72,30,4,1,53,27,700,['n'],0,left,['1'],6,107,[-0.08597585],91,53,easy,minus,dotcolour,alfa,,,104,22,M,R,
199,73,31,4,1,33,47,617,['n'],1,right,['1'],6,80,[-0.05626475],86,47,medium,minus,dotcolour,alfa,,,104,22,M,R,
200,74,32,4,1,44,36,901,['c'],1,left,['1'],6,113,[0.06192643],84,44,hard,minus,dotcolour,alfa,,,104,22,M,R,
201,75,33,4,1,47,33,916,['n'],0,left,['1'],6,129,[-0.08920508],90,47,medium,minus,dotcolour,alfa,,,104,22,M,R,
202,76,34,4,1,53,27,767,['c'],1,left,['1'],6,103,[0.10751416],95,53,easy,minus,dotcolour,alfa,,,104,22,M,R,
203,77,35,4,1,47,33,733,['n'],0,left,['1'],6,111,[-0.04170491],76,47,medium,minus,dotcolour,alfa,,,104,22,M,R,
204,78,36,4,1,44,36,750,['c'],1,left,['1'],6,117,[0.05808205],82,44,hard,minus,dotcolour,alfa,,,104,22,M,R,
205,79,37,4,1,47,33,750,['c'],1,left,['1'],6,132,[0.06086983],82,47,medium,minus,dotcolour,alfa,,,104,22,M,R,
206,80,38,4,1,27,53,734,['n'],1,right,['1'],6,139,[-0.05757342],80,53,easy,minus,dotcolour,alfa,,,104,22,M,R,
207,81,39,4,1,33,47,750,['n'],1,right,['1'],6,113,[-0.07652066],89,47,medium,minus,dotcolour,alfa,,,104,22,M,R,
208,82,40,4,1,33,47,550,['n'],1,right,['1'],6,71,[-0.07814283],93,47,medium,minus,dotcolour,alfa,,,104,22,M,R,
209,83,41,4,1,36,44,817,['c'],0,right,['1'],6,117,[0.09700655],93,44,hard,minus,dotcolour,alfa,,,104,22,M,R,
210,84,0,5,1,44,36,784,['n'],0,left,['1'],6,121,[-0.12837625],97,44,hard,minus,dotcolour,alfa,,,104,22,M,R,
211,85,1,5,1,27,53,967,['n'],1,right,['2'],5,134,[-0.1275549],96,53,easy,minus,dotcolour,alfa,,,104,22,M,R,
212,86,2,5,1,53,27,1467,['c'],1,left,['1'],6,103,[0.12598913],97,53,easy,minus,dotcolour,alfa,,,104,22,M,R,
213,87,3,5,1,36,44,667,['n'],1,right,['1'],6,90,[-0.10105615],95,44,hard,minus,dotcolour,alfa,,,104,22,M,R,
214,88,4,5,1,53,27,800,['c'],1,left,['1'],6,95,[0.07148744],89,53,easy,minus,dotcolour,alfa,,,104,22,M,R,
215,89,5,5,1,44,36,633,['n'],0,left,['1'],6,99,[-0.01919388],63,44,hard,minus,dotcolour,alfa,,,104,22,M,R,
216,90,6,5,1,36,44,983,['n'],1,right,['2'],5,105,[-0.06229707],85,44,hard,minus,dotcolour,alfa,,,104,22,M,R,
217,91,7,5,1,47,33,1617,['c'],1,left,['1'],6,62,[0.07388252],94,47,medium,minus,dotcolour,alfa,,,104,22,M,R,
218,92,8,5,1,27,53,1183,['n'],1,right,['1'],6,134,[-0.13777711],97,53,easy,minus,dotcolour,alfa,,,104,22,M,R,
219,93,9,5,1,44,36,883,['c'],1,left,['1'],6,94,[0.0665728],88,44,hard,minus,dotcolour,alfa,,,104,22,M,R,
220,94,10,5,1,27,53,683,['n'],1,right,['1'],6,88,[-0.06809638],89,53,easy,minus,dotcolour,alfa,,,104,22,M,R,
221,95,11,5,1,53,27,883,['c'],1,left,['1'],6,123,[0.02464683],65,53,easy,minus,dotcolour,alfa,,,104,22,M,R,
222,96,12,5,1,27,53,666,['n'],1,right,['1'],6,92,[-0.07954559],91,53,easy,minus,dotcolour,alfa,,,104,22,M,R,
223,97,13,5,1,47,33,833,['c'],1,left,['1'],6,137,[0.06251931],82,47,medium,minus,dotcolour,alfa,,,104,22,M,R,
224,98,14,5,1,53,27,835,['c'],1,left,['1'],6,99,[0.11091557],96,53,easy,minus,dotcolour,alfa,,,104,22,M,R,
225,99,15,5,1,36,44,849,['n'],1,right,['1'],6,87,[-0.08173181],92,44,hard,minus,dotcolour,alfa,,,104,22,M,R,
226,100,16,5,1,47,33,733,['c'],1,left,['1'],6,87,[0.09068959],94,47,medium,minus,dotcolour,alfa,,,104,22,M,R,
227,101,17,5,1,47,33,817,['c'],1,left,['1'],6,68,[0.05272927],86,47,medium,minus,dotcolour,alfa,,,104,22,M,R,
228,102,18,5,1,27,53,584,['n'],1,right,['1'],6,69,[-0.12491937],99,53,easy,minus,dotcolour,alfa,,,104,22,M,R,
229,103,19,5,1,47,33,1100,['c'],1,left,['1'],6,110,[0.07347438],88,47,medium,minus,dotcolour,alfa,,,104,22,M,R,
230,104,20,5,1,33,47,617,['n'],1,right,['1'],6,67,[-0.01777375],65,47,medium,minus,dotcolour,alfa,,,104,22,M,R,
231,105,21,5,1,36,44,650,['n'],1,right,['1'],6,104,[-0.07378523],89,44,hard,minus,dotcolour,alfa,,,104,22,M,R,
232,106,22,5,1,33,47,1018,['c'],0,right,['1'],6,100,[0.08346138],91,47,medium,minus,dotcolour,alfa,,,104,22,M,R,
233,107,23,5,1,33,47,950,['c'],0,right,['1'],6,76,[0.04237078],80,47,medium,minus,dotcolour,alfa,,,104,22,M,R,
234,108,24,5,1,44,36,933,['c'],1,left,['1'],6,116,[0.11800387],96,44,hard,minus,dotcolour,alfa,,,104,22,M,R,
235,109,25,5,1,33,47,567,['n'],1,right,['1'],6,98,[-0.07439878],89,47,medium,minus,dotcolour,alfa,,,104,22,M,R,
236,110,26,5,1,33,47,584,['n'],1,right,['1'],6,136,[-0.17572141],99,47,medium,minus,dotcolour,alfa,,,104,22,M,R,
237,111,27,5,1,44,36,783,['c'],1,left,['1'],6,93,[0.11110495],96,44,hard,minus,dotcolour,alfa,,,104,22,M,R,
238,112,28,5,1,27,53,549,['n'],1,right,['1'],6,100,[-0.0272012],68,53,easy,minus,dotcolour,alfa,,,104,22,M,R,
239,113,29,5,1,33,47,783,['n'],1,right,['1'],6,291,[-0.09002613],82,47,medium,minus,dotcolour,alfa,,,104,22,M,R,
240,114,30,5,1,53,27,816,['c'],1,left,['1'],6,103,[0.08618833],92,53,easy,minus,dotcolour,alfa,,,104,22,M,R,
241,115,31,5,1,44,36,734,['c'],1,left,['1'],6,79,[0.09481972],95,44,hard,minus,dotcolour,alfa,,,104,22,M,R,
242,116,32,5,1,33,47,583,['n'],1,right,['1'],6,109,[-0.08870182],92,47,medium,minus,dotcolour,alfa,,,104,22,M,R,
243,117,33,5,1,47,33,684,['n'],0,left,['1'],6,111,[0.00994952],43,47,medium,minus,dotcolour,alfa,,,104,22,M,R,
244,118,34,5,1,36,44,517,['n'],1,right,['1'],6,135,[-0.02677904],66,44,hard,minus,dotcolour,alfa,,,104,22,M,R,
245,119,35,5,1,36,44,533,['n'],1,right,['2'],5,181,[-0.06381232],79,44,hard,minus,dotcolour,alfa,,,104,22,M,R,
246,120,36,5,1,47,33,534,['n'],0,left,['2'],5,82,[-0.03905085],77,47,medium,minus,dotcolour,alfa,,,104,22,M,R,
247,121,37,5,1,53,27,834,['c'],1,left,['1'],6,111,[0.1044258],94,53,easy,minus,dotcolour,alfa,,,104,22,M,R,
248,122,38,5,1,44,36,583,['c'],1,left,['1'],6,85,[0.10015856],96,44,hard,minus,dotcolour,alfa,,,104,22,M,R,
249,123,39,5,1,53,27,666,['c'],1,left,['1'],6,88,[0.11243025],97,53,easy,minus,dotcolour,alfa,,,104,22,M,R,
250,124,40,5,1,27,53,533,['n'],1,right,['1'],6,72,[-0.12532996],99,53,easy,minus,dotcolour,alfa,,,104,22,M,R,
251,125,41,5,1,36,44,517,['n'],1,right,['1'],6,107,[-0.06350037],85,44,hard,minus,dotcolour,alfa,,,104,22,M,R,
252,0,0,6,2,44,36,551,['n'],0,left,['1'],6,99,[-0.12065125],100,44,hard,plus,dotcolour,alfa,,,104,22,M,R,
253,1,1,6,2,53,27,650,['c'],1,left,['1'],6,103,[0.1026693],100,53,easy,plus,dotcolour,alfa,,,104,22,M,R,
254,2,2,6,2,36,44,567,['n'],1,right,['1'],6,69,[-0.08885006],100,44,hard,plus,dotcolour,alfa,,,104,22,M,R,
255,3,3,6,2,27,53,817,['n'],1,right,['1'],6,107,[-0.08440994],100,53,easy,plus,dotcolour,alfa,,,104,22,M,R,
256,4,4,6,2,44,36,1100,['c'],1,left,['1'],6,116,[0.04806657],99,44,hard,plus,dotcolour,alfa,,,104,22,M,R,
257,5,5,6,2,47,33,833,['n'],0,left,['1'],6,79,[-0.06463382],100,47,medium,plus,dotcolour,alfa,,,104,22,M,R,
258,6,6,6,2,36,44,550,['n'],1,right,['1'],6,31,[-0.06953772],100,44,hard,plus,dotcolour,alfa,,,104,22,M,R,
259,7,7,6,2,33,47,517,['n'],1,right,['1'],6,83,[-0.05419705],100,47,medium,plus,dotcolour,alfa,,,104,22,M,R,
260,8,8,6,2,36,44,517,['n'],1,right,['1'],6,92,[-0.02507532],95,44,hard,plus,dotcolour,alfa,,,104,22,M,R,
261,9,9,6,2,47,33,633,['c'],1,left,['1'],6,64,[0.07870202],100,47,medium,plus,dotcolour,alfa,,,104,22,M,R,
262,10,10,6,2,27,53,450,['n'],1,right,['1'],6,84,[-0.07045462],100,53,easy,plus,dotcolour,alfa,,,104,22,M,R,
263,11,11,6,2,44,36,750,['c'],1,left,['1'],6,61,[0.06237929],100,44,hard,plus,dotcolour,alfa,,,104,22,M,R,
264,12,12,6,2,33,47,1284,['n'],1,right,['1'],6,72,[-0.11865466],100,47,medium,plus,dotcolour,alfa,,,104,22,M,R,
265,13,13,6,2,27,53,534,['n'],1,right,['1'],6,49,[-0.1067497],100,53,easy,plus,dotcolour,alfa,,,104,22,M,R,
266,14,14,6,2,53,27,683,['c'],1,left,['1'],6,69,[0.06685836],100,53,easy,plus,dotcolour,alfa,,,104,22,M,R,
267,15,15,6,2,27,53,500,['n'],1,right,['1'],6,56,[-0.09261589],100,53,easy,plus,dotcolour,alfa,,,104,22,M,R,
268,16,16,6,2,33,47,634,['n'],1,right,['1'],6,110,[-0.13405083],100,47,medium,plus,dotcolour,alfa,,,104,22,M,R,
269,17,17,6,2,27,53,583,['n'],1,right,['1'],6,75,[-0.06167995],100,53,easy,plus,dotcolour,alfa,,,104,22,M,R,
270,18,18,6,2,36,44,550,['c'],0,right,['1'],6,43,[0.04552092],100,44,hard,plus,dotcolour,alfa,,,104,22,M,R,
271,19,19,6,2,27,53,501,['n'],1,right,['1'],6,87,[-0.07346846],100,53,easy,plus,dotcolour,alfa,,,104,22,M,R,
272,20,20,6,2,47,33,567,['c'],1,left,['1'],6,62,[0.03118225],99,47,medium,plus,dotcolour,alfa,,,104,22,M,R,
273,21,21,6,2,47,33,867,['c'],1,left,['1'],6,59,[0.03515626],99,47,medium,plus,dotcolour,alfa,,,104,22,M,R,
274,22,22,6,2,53,27,2301,['n'],0,left,['1'],6,109,[-0.04436848],99,53,easy,plus,dotcolour,alfa,,,104,22,M,R,
275,23,23,6,2,44,36,533,['n'],0,left,['1'],6,60,[-0.06366484],100,44,hard,plus,dotcolour,alfa,,,104,22,M,R,
276,24,24,6,2,44,36,566,['n'],0,left,['1'],6,117,[-0.13446717],100,44,hard,plus,dotcolour,alfa,,,104,22,M,R,
277,25,25,6,2,33,47,583,['c'],0,right,['1'],6,42,[0.06285741],100,47,medium,plus,dotcolour,alfa,,,104,22,M,R,
278,26,26,6,2,36,44,633,['n'],1,right,['1'],6,72,[-0.05957601],100,44,hard,plus,dotcolour,alfa,,,104,22,M,R,
279,27,27,6,2,53,27,782,['c'],1,left,['1'],6,16,[0.06234981],100,53,easy,plus,dotcolour,alfa,,,104,22,M,R,
280,28,28,6,2,33,47,634,['n'],1,right,['1'],6,118,[-0.12077255],100,47,medium,plus,dotcolour,alfa,,,104,22,M,R,
281,29,29,6,2,36,44,800,['c'],0,right,['2'],5,91,[0.02633064],96,44,hard,plus,dotcolour,alfa,,,104,22,M,R,
282,30,30,6,2,53,27,1433,['c'],1,left,['1'],6,39,[0.06148814],100,53,easy,plus,dotcolour,alfa,,,104,22,M,R,
283,31,31,6,2,44,36,1033,['n'],0,left,['1'],6,70,[-0.06845249],100,44,hard,plus,dotcolour,alfa,,,104,22,M,R,
284,32,32,6,2,44,36,500,['c'],1,left,['2'],5,49,[0.0800721],100,44,hard,plus,dotcolour,alfa,,,104,22,M,R,
285,33,33,6,2,47,33,567,['c'],1,left,['2'],5,25,[0.06639092],100,47,medium,plus,dotcolour,alfa,,,104,22,M,R,
286,34,34,6,2,27,53,600,['c'],0,right,['1'],6,65,[0.06794508],100,53,easy,plus,dotcolour,alfa,,,104,22,M,R,
287,35,35,6,2,47,33,801,['n'],0,left,['1'],6,48,[-0.0094314],82,47,medium,plus,dotcolour,alfa,,,104,22,M,R,
288,36,36,6,2,36,44,1117,['n'],1,right,['1'],6,66,[-0.07336166],100,44,hard,plus,dotcolour,alfa,,,104,22,M,R,
289,37,37,6,2,53,27,817,['c'],1,left,['1'],6,25,[0.06763938],100,53,easy,plus,dotcolour,alfa,,,104,22,M,R,
290,38,38,6,2,33,47,700,['n'],1,right,['1'],6,77,[-0.1080959],100,47,medium,plus,dotcolour,alfa,,,104,22,M,R,
291,39,39,6,2,53,27,684,['c'],1,left,['1'],6,31,[0.09750802],100,53,easy,plus,dotcolour,alfa,,,104,22,M,R,
292,40,40,6,2,47,33,833,['c'],1,left,['1'],6,22,[0.08705019],100,47,medium,plus,dotcolour,alfa,,,104,22,M,R,
293,41,41,6,2,33,47,583,['n'],1,right,['1'],6,48,[-0.10229498],100,47,medium,plus,dotcolour,alfa,,,104,22,M,R,
294,42,0,7,2,53,27,901,['c'],1,left,['1'],6,24,[0.07597826],100,53,easy,plus,dotcolour,alfa,,,104,22,M,R,
295,43,1,7,2,47,33,566,['c'],1,left,['1'],6,2,[0.06901473],100,47,medium,plus,dotcolour,alfa,,,104,22,M,R,
296,44,2,7,2,53,27,816,['c'],1,left,['1'],6,1331,[0.19182794],100,53,easy,plus,dotcolour,alfa,,,104,22,M,R,
297,45,3,7,2,44,36,783,['n'],0,left,['1'],6,103,[-0.01159533],79,44,hard,plus,dotcolour,alfa,,,104,22,M,R,
298,46,4,7,2,47,33,867,['c'],1,left,['1'],6,57,[0.11885597],100,47,medium,plus,dotcolour,alfa,,,104,22,M,R,
299,47,5,7,2,44,36,916,['c'],1,left,['1'],6,91,[0.08947278],100,44,hard,plus,dotcolour,alfa,,,104,22,M,R,
300,48,6,7,2,27,53,700,['n'],1,right,['1'],6,85,[-0.06440774],100,53,easy,plus,dotcolour,alfa,,,104,22,M,R,
301,49,7,7,2,44,36,651,['c'],1,left,['2'],5,313,[0.07753162],99,44,hard,plus,dotcolour,alfa,,,104,22,M,R,
302,50,8,7,2,27,53,650,['n'],1,right,['1'],6,92,[-0.06370001],100,53,easy,plus,dotcolour,alfa,,,104,22,M,R,
303,51,9,7,2,44,36,651,['c'],1,left,['1'],6,39,[0.03923244],100,44,hard,plus,dotcolour,alfa,,,104,22,M,R,
304,52,10,7,2,53,27,733,['c'],1,left,['1'],6,82,[0.08931886],100,53,easy,plus,dotcolour,alfa,,,104,22,M,R,
305,53,11,7,2,53,27,833,['c'],1,left,['1'],6,94,[0.07937352],100,53,easy,plus,dotcolour,alfa,,,104,22,M,R,
306,54,12,7,2,44,36,834,['n'],0,left,['1'],6,179,[0.05710789],1,44,hard,plus,dotcolour,alfa,,,104,22,M,R,
307,55,13,7,2,36,44,767,['c'],0,right,['1'],6,22,[0.05960984],100,44,hard,plus,dotcolour,alfa,,,104,22,M,R,
308,56,14,7,2,36,44,667,['n'],1,right,['1'],6,171,[-0.10040395],100,44,hard,plus,dotcolour,alfa,,,104,22,M,R,
309,57,15,7,2,27,53,1317,['n'],1,right,['1'],6,82,[-0.09440853],100,53,easy,plus,dotcolour,alfa,,,104,22,M,R,
310,58,16,7,2,33,47,3166,['n'],1,right,['2'],5,281,[-0.05127877],97,47,medium,plus,dotcolour,alfa,,,104,22,M,R,
311,59,17,7,2,53,27,934,['n'],0,left,['1'],6,58,[-0.04720809],100,53,easy,plus,dotcolour,alfa,,,104,22,M,R,
312,60,18,7,2,44,36,1184,['n'],0,left,['1'],6,121,[-0.09262565],100,44,hard,plus,dotcolour,alfa,,,104,22,M,R,
313,61,19,7,2,27,53,350,['c'],0,right,['1'],6,24,[0.07634676],100,53,easy,plus,dotcolour,alfa,,,104,22,M,R,
314,62,20,7,2,47,33,734,['c'],1,left,['1'],6,43,[0.06496961],100,47,medium,plus,dotcolour,alfa,,,104,22,M,R,
315,63,21,7,2,33,47,650,['n'],1,right,['1'],6,40,[-0.08198404],100,47,medium,plus,dotcolour,alfa,,,104,22,M,R,
316,64,22,7,2,33,47,601,['n'],1,right,['1'],6,80,[-0.10410962],100,47,medium,plus,dotcolour,alfa,,,104,22,M,R,
317,65,23,7,2,53,27,700,['c'],1,left,['1'],6,10,[0.06500115],100,53,easy,plus,dotcolour,alfa,,,104,22,M,R,
318,66,24,7,2,33,47,517,['n'],1,right,['1'],6,55,[-0.06129116],100,47,medium,plus,dotcolour,alfa,,,104,22,M,R,
319,67,25,7,2,33,47,750,['n'],1,right,['1'],6,56,[-0.06409393],100,47,medium,plus,dotcolour,alfa,,,104,22,M,R,
320,68,26,7,2,47,33,650,['c'],1,left,['1'],6,69,[0.09910548],100,47,medium,plus,dotcolour,alfa,,,104,22,M,R,
321,69,27,7,2,33,47,800,['n'],1,right,['1'],6,92,[-0.0602731],100,47,medium,plus,dotcolour,alfa,,,104,22,M,R,
322,70,28,7,2,47,33,784,['c'],1,left,['1'],6,66,[0.07658658],100,47,medium,plus,dotcolour,alfa,,,104,22,M,R,
323,71,29,7,2,36,44,550,['n'],1,right,['1'],6,122,[-0.03347306],97,44,hard,plus,dotcolour,alfa,,,104,22,M,R,
324,72,30,7,2,27,53,634,['n'],1,right,['1'],6,62,[-0.06124496],100,53,easy,plus,dotcolour,alfa,,,104,22,M,R,
325,73,31,7,2,44,36,833,['c'],1,left,['1'],6,83,[0.06283744],100,44,hard,plus,dotcolour,alfa,,,104,22,M,R,
326,74,32,7,2,47,33,650,['c'],1,left,['1'],6,63,[0.08685889],100,47,medium,plus,dotcolour,alfa,,,104,22,M,R,
327,75,33,7,2,27,53,367,['n'],1,right,['1'],6,47,[-0.05392202],100,53,easy,plus,dotcolour,alfa,,,104,22,M,R,
328,76,34,7,2,47,33,917,['c'],1,left,['1'],6,42,[0.10189554],100,47,medium,plus,dotcolour,alfa,,,104,22,M,R,
329,77,35,7,2,53,27,568,['c'],1,left,['1'],6,59,[0.11987493],100,53,easy,plus,dotcolour,alfa,,,104,22,M,R,
330,78,36,7,2,27,53,549,['n'],1,right,['1'],6,100,[-0.08482405],100,53,easy,plus,dotcolour,alfa,,,104,22,M,R,
331,79,37,7,2,36,44,683,['c'],0,right,['1'],6,78,[0.08824342],100,44,hard,plus,dotcolour,alfa,,,104,22,M,R,
332,80,38,7,2,36,44,650,['c'],0,right,['1'],6,217,[0.03785815],95,44,hard,plus,dotcolour,alfa,,,104,22,M,R,
333,81,39,7,2,36,44,966,['c'],0,right,['1'],6,44,[0.07185669],100,44,hard,plus,dotcolour,alfa,,,104,22,M,R,
334,82,40,7,2,36,44,734,['n'],1,right,['1'],6,69,[-0.07700055],100,44,hard,plus,dotcolour,alfa,,,104,22,M,R,
335,83,41,7,2,33,47,733,['n'],1,right,['1'],6,87,[-0.09983242],100,47,medium,plus,dotcolour,alfa,,,104,22,M,R,
336,84,0,8,2,53,27,668,['c'],1,left,['1'],6,9,[0.06753402],100,53,easy,plus,dotcolour,alfa,,,104,22,M,R,
337,85,1,8,2,27,53,717,['n'],1,right,['1'],6,61,[-0.10502007],100,53,easy,plus,dotcolour,alfa,,,104,22,M,R,
338,86,2,8,2,44,36,617,['c'],1,left,['1'],6,875,[0.13850686],100,44,hard,plus,dotcolour,alfa,,,104,22,M,R,
339,87,3,8,2,33,47,700,['n'],1,right,['1'],6,109,[-0.04623119],99,47,medium,plus,dotcolour,alfa,,,104,22,M,R,
340,88,4,8,2,33,47,533,['n'],1,right,['1'],6,68,[-0.07069314],100,47,medium,plus,dotcolour,alfa,,,104,22,M,R,
341,89,5,8,2,47,33,533,['c'],1,left,['1'],6,61,[0.09106369],100,47,medium,plus,dotcolour,alfa,,,104,22,M,R,
342,90,6,8,2,44,36,633,['c'],1,left,['1'],6,811,[0.0597828],92,44,hard,plus,dotcolour,alfa,,,104,22,M,R,
343,91,7,8,2,53,27,1050,['c'],1,left,['1'],6,58,[0.07645046],100,53,easy,plus,dotcolour,alfa,,,104,22,M,R,
344,92,8,8,2,47,33,849,['c'],1,left,['1'],6,78,[0.03058845],98,47,medium,plus,dotcolour,alfa,,,104,22,M,R,
345,93,9,8,2,36,44,850,['n'],1,right,['1'],6,98,[-0.06821171],100,44,hard,plus,dotcolour,alfa,,,104,22,M,R,
346,94,10,8,2,33,47,1850,['n'],1,right,['1'],6,214,[-0.10346181],100,47,medium,plus,dotcolour,alfa,,,104,22,M,R,
347,95,11,8,2,44,36,633,['n'],0,left,['1'],6,77,[-0.08195725],100,44,hard,plus,dotcolour,alfa,,,104,22,M,R,
348,96,12,8,2,27,53,533,['n'],1,right,['1'],6,102,[-0.11489286],100,53,easy,plus,dotcolour,alfa,,,104,22,M,R,
349,97,13,8,2,33,47,567,['n'],1,right,['1'],6,77,[-0.0771794],100,47,medium,plus,dotcolour,alfa,,,104,22,M,R,
350,98,14,8,2,33,47,567,['n'],1,right,['1'],6,76,[-0.1102957],100,47,medium,plus,dotcolour,alfa,,,104,22,M,R,
351,99,15,8,2,53,27,700,['c'],1,left,['1'],6,22,[0.07892505],100,53,easy,plus,dotcolour,alfa,,,104,22,M,R,
352,100,16,8,2,27,53,483,['n'],1,right,['1'],6,44,[-0.08452883],100,53,easy,plus,dotcolour,alfa,,,104,22,M,R,
353,101,17,8,2,36,44,816,['c'],0,right,['1'],6,42,[0.10511129],100,44,hard,plus,dotcolour,alfa,,,104,22,M,R,
354,102,18,8,2,36,44,650,['n'],1,right,['1'],6,39,[-0.07620327],100,44,hard,plus,dotcolour,alfa,,,104,22,M,R,
355,103,19,8,2,44,36,584,['n'],0,left,['1'],6,496,[-0.02052326],74,44,hard,plus,dotcolour,alfa,,,104,22,M,R,
356,104,20,8,2,27,53,582,['n'],1,right,['1'],6,62,[-0.10267813],100,53,easy,plus,dotcolour,alfa,,,104,22,M,R,
357,105,21,8,2,36,44,650,['c'],0,right,['1'],6,51,[0.05445235],100,44,hard,plus,dotcolour,alfa,,,104,22,M,R,
358,106,22,8,2,27,53,550,['n'],1,right,['1'],6,572,[-0.17152772],100,53,easy,plus,dotcolour,alfa,,,104,22,M,R,
359,107,23,8,2,53,27,766,['c'],1,left,['1'],6,39,[0.06781606],100,53,easy,plus,dotcolour,alfa,,,104,22,M,R,
360,108,24,8,2,47,33,834,['c'],1,left,['1'],6,62,[0.05788586],100,47,medium,plus,dotcolour,alfa,,,104,22,M,R,
361,109,25,8,2,47,33,582,['c'],1,left,['1'],6,46,[0.08379016],100,47,medium,plus,dotcolour,alfa,,,104,22,M,R,
362,110,26,8,2,44,36,551,['n'],0,left,['1'],6,71,[-0.09455096],100,44,hard,plus,dotcolour,alfa,,,104,22,M,R,
363,111,27,8,2,44,36,651,['c'],1,left,['1'],6,83,[0.0578935],100,44,hard,plus,dotcolour,alfa,,,104,22,M,R,
364,112,28,8,2,47,33,784,['c'],1,left,['1'],6,11,[0.06552667],100,47,medium,plus,dotcolour,alfa,,,104,22,M,R,
365,113,29,8,2,53,27,450,['c'],1,left,['1'],6,73,[0.08028757],100,53,easy,plus,dotcolour,alfa,,,104,22,M,R,
366,114,30,8,2,36,44,833,['c'],0,right,['1'],6,102,[0.08136691],100,44,hard,plus,dotcolour,alfa,,,104,22,M,R,
367,115,31,8,2,47,33,534,['c'],1,left,['1'],6,590,[0.03573542],84,47,medium,plus,dotcolour,alfa,,,104,22,M,R,
368,116,32,8,2,44,36,783,['n'],0,left,['1'],6,128,[-0.11523771],100,44,hard,plus,dotcolour,alfa,,,104,22,M,R,
369,117,33,8,2,47,33,666,['c'],1,left,['1'],6,26,[0.06048671],100,47,medium,plus,dotcolour,alfa,,,104,22,M,R,
370,118,34,8,2,36,44,633,['n'],1,right,['1'],6,137,[-0.09241129],100,44,hard,plus,dotcolour,alfa,,,104,22,M,R,
371,119,35,8,2,27,53,616,['n'],1,right,['1'],6,252,[-0.0846175],100,53,easy,plus,dotcolour,alfa,,,104,22,M,R,
372,120,36,8,2,33,47,700,['n'],1,right,['1'],6,159,[-0.07785679],100,47,medium,plus,dotcolour,alfa,,,104,22,M,R,
373,121,37,8,2,53,27,667,['c'],1,left,['1'],6,152,[0.06711253],100,53,easy,plus,dotcolour,alfa,,,104,22,M,R,
374,122,38,8,2,27,53,600,['n'],1,right,['1'],6,114,[-0.1498108],100,53,easy,plus,dotcolour,alfa,,,104,22,M,R,
375,123,39,8,2,33,47,766,['n'],1,right,['1'],6,112,[-0.14498667],100,47,medium,plus,dotcolour,alfa,,,104,22,M,R,
376,124,40,8,2,36,44,783,['n'],1,right,['1'],6,126,[-0.05870715],100,44,hard,plus,dotcolour,alfa,,,104,22,M,R,
377,125,41,8,2,53,27,667,['c'],1,left,['1'],6,79,[0.09674407],100,53,easy,plus,dotcolour,alfa,,,104,22,M,R,
378,0,0,9,3,36,44,1252,['c'],0,right,['1'],6,251,[0.01281887],56,44,hard,minus,dotcolour,alfa,,,104,22,M,R,
379,1,1,9,3,36,44,800,['n'],1,right,['1'],6,130,[-0.04034435],73,44,hard,minus,dotcolour,alfa,,,104,22,M,R,
380,2,2,9,3,33,47,533,['c'],0,right,['2'],5,73,[0.10450992],97,47,medium,minus,dotcolour,alfa,,,104,22,M,R,
381,3,3,9,3,44,36,300,['c'],1,left,['2'],5,60,[0.06911949],93,44,hard,minus,dotcolour,alfa,,,104,22,M,R,
382,4,4,9,3,33,47,434,['c'],0,right,['2'],5,26,[0.06685599],98,47,medium,minus,dotcolour,alfa,,,104,22,M,R,
383,5,5,9,3,47,33,483,['n'],0,left,['2'],5,134,[0.00092283],49,47,medium,minus,dotcolour,alfa,,,104,22,M,R,
384,6,6,9,3,36,44,517,['c'],0,right,['1'],6,102,[0.05648969],83,44,hard,minus,dotcolour,alfa,,,104,22,M,R,
385,7,7,9,3,27,53,164,['c'],0,right,['2'],5,19,[0.05335612],97,53,easy,minus,dotcolour,alfa,,,104,22,M,R,
386,8,8,9,3,27,53,367,['n'],1,right,['2'],5,61,[-0.06884139],92,53,easy,minus,dotcolour,alfa,,,104,22,M,R,
387,9,9,9,3,33,47,417,['n'],1,right,['1'],6,91,[-0.10376159],96,47,medium,minus,dotcolour,alfa,,,104,22,M,R,
388,10,10,9,3,44,36,767,['c'],1,left,['3'],4,330,[0.09019286],80,44,hard,minus,dotcolour,alfa,,,104,22,M,R,
389,11,11,9,3,53,27,834,['c'],1,left,['1'],6,36,[0.0871872],98,53,easy,minus,dotcolour,alfa,,,104,22,M,R,
390,12,12,9,3,44,36,884,['n'],0,left,['1'],6,73,[-0.07499212],92,44,hard,minus,dotcolour,alfa,,,104,22,M,R,
391,13,13,9,3,53,27,750,['c'],1,left,['1'],6,97,[0.04148391],77,53,easy,minus,dotcolour,alfa,,,104,22,M,R,
392,14,14,9,3,44,36,717,['c'],1,left,['1'],6,106,[0.13286913],98,44,hard,minus,dotcolour,alfa,,,104,22,M,R,
393,15,15,9,3,53,27,484,['c'],1,left,['1'],6,92,[0.10111338],95,53,easy,minus,dotcolour,alfa,,,104,22,M,R,
394,16,16,9,3,36,44,617,['n'],1,right,['1'],6,88,[-0.08307991],93,44,hard,minus,dotcolour,alfa,,,104,22,M,R,
395,17,17,9,3,53,27,833,['c'],1,left,['1'],6,101,[0.05296632],82,53,easy,minus,dotcolour,alfa,,,104,22,M,R,
396,18,18,9,3,47,33,649,['n'],0,left,['1'],6,56,[-0.04953182],87,47,medium,minus,dotcolour,alfa,,,104,22,M,R,
397,19,19,9,3,27,53,3134,['n'],1,right,['1'],6,906,[-0.18160363],85,53,easy,minus,dotcolour,alfa,,,104,22,M,R,
398,20,20,9,3,33,47,600,['n'],1,right,['1'],6,31,[-0.06421715],96,47,medium,minus,dotcolour,alfa,,,104,22,M,R,
399,21,21,9,3,47,33,716,['n'],0,left,['1'],6,42,[-0.06575707],95,47,medium,minus,dotcolour,alfa,,,104,22,M,R,
400,22,22,9,3,27,53,616,['c'],0,right,['1'],6,65,[0.0790281],94,53,easy,minus,dotcolour,alfa,,,104,22,M,R,
401,23,23,9,3,44,36,300,['n'],0,left,['1'],6,156,[-0.01885745],61,44,hard,minus,dotcolour,alfa,,,104,22,M,R,
402,24,24,9,3,47,33,700,['n'],0,left,['1'],6,67,[-0.06695234],91,47,medium,minus,dotcolour,alfa,,,104,22,M,R,
403,25,25,9,3,44,36,916,['n'],0,left,['1'],6,94,[-0.07009801],89,44,hard,minus,dotcolour,alfa,,,104,22,M,R,
404,26,26,9,3,47,33,850,['c'],1,left,['1'],6,48,[0.1163582],99,47,medium,minus,dotcolour,alfa,,,104,22,M,R,
405,27,27,9,3,36,44,833,['c'],0,right,['1'],6,6,[0.0684881],100,44,hard,minus,dotcolour,alfa,,,104,22,M,R,
406,28,28,9,3,33,47,567,['n'],1,right,['1'],6,49,[-0.05467953],90,47,medium,minus,dotcolour,alfa,,,104,22,M,R,
407,29,29,9,3,47,33,817,['c'],1,left,['1'],6,55,[0.0642541],92,47,medium,minus,dotcolour,alfa,,,104,22,M,R,
408,30,30,9,3,53,27,650,['c'],1,left,['1'],6,36,[0.06749393],96,53,easy,minus,dotcolour,alfa,,,104,22,M,R,
409,31,31,9,3,33,47,583,['n'],1,right,['1'],6,45,[-0.07896688],97,47,medium,minus,dotcolour,alfa,,,104,22,M,R,
410,32,32,9,3,53,27,735,['c'],1,left,['1'],6,80,[0.07582825],92,53,easy,minus,dotcolour,alfa,,,104,22,M,R,
411,33,33,9,3,27,53,567,['n'],1,right,['1'],6,63,[-0.12470931],99,53,easy,minus,dotcolour,alfa,,,104,22,M,R,
412,34,34,9,3,27,53,784,['n'],1,right,['1'],6,174,[-0.09369091],88,53,easy,minus,dotcolour,alfa,,,104,22,M,R,
413,35,35,9,3,47,33,767,['n'],0,left,['1'],6,74,[-0.05698025],87,47,medium,minus,dotcolour,alfa,,,104,22,M,R,
414,36,36,9,3,36,44,634,['n'],1,right,['1'],6,38,[-0.04478781],89,44,hard,minus,dotcolour,alfa,,,104,22,M,R,
415,37,37,9,3,27,53,534,['n'],1,right,['1'],6,49,[-0.06163078],92,53,easy,minus,dotcolour,alfa,,,104,22,M,R,
416,38,38,9,3,44,36,716,['c'],1,left,['1'],6,43,[0.0641486],94,44,hard,minus,dotcolour,alfa,,,104,22,M,R,
417,39,39,9,3,53,27,667,['c'],1,left,['1'],6,73,[0.07868034],93,53,easy,minus,dotcolour,alfa,,,104,22,M,R,
418,40,40,9,3,36,44,600,['n'],1,right,['1'],6,63,[-0.07203965],93,44,hard,minus,dotcolour,alfa,,,104,22,M,R,
419,41,41,9,3,33,47,684,['n'],1,right,['1'],6,106,[-0.06026813],84,47,medium,minus,dotcolour,alfa,,,104,22,M,R,
420,42,0,10,3,47,33,1418,['c'],1,left,['1'],6,425,[0.08346169],76,47,medium,minus,dotcolour,alfa,,,104,22,M,R,
421,43,1,10,3,36,44,550,['n'],1,right,['1'],6,59,[-0.08255335],96,44,hard,minus,dotcolour,alfa,,,104,22,M,R,
422,44,2,10,3,44,36,784,['c'],1,left,['1'],6,34,[0.08533265],98,44,hard,minus,dotcolour,alfa,,,104,22,M,R,
423,45,3,10,3,47,33,767,['n'],0,left,['1'],6,100,[-0.06986616],88,47,medium,minus,dotcolour,alfa,,,104,22,M,R,
424,46,4,10,3,33,47,617,['n'],1,right,['1'],6,40,[-0.07857636],97,47,medium,minus,dotcolour,alfa,,,104,22,M,R,
425,47,5,10,3,44,36,650,['c'],1,left,['1'],6,46,[0.05391598],91,44,hard,minus,dotcolour,alfa,,,104,22,M,R,
426,48,6,10,3,53,27,800,['c'],1,left,['1'],6,14,[0.06883996],99,53,easy,minus,dotcolour,alfa,,,104,22,M,R,
427,49,7,10,3,33,47,650,['c'],0,right,['1'],6,36,[0.0510593],92,47,medium,minus,dotcolour,alfa,,,104,22,M,R,
428,50,8,10,3,27,53,666,['c'],0,right,['1'],6,674,[-0.00677198],48,53,easy,minus,dotcolour,alfa,,,104,22,M,R,
429,51,9,10,3,27,53,766,['c'],0,right,['1'],6,74,[0.04208347],80,53,easy,minus,dotcolour,alfa,,,104,22,M,R,
430,52,10,10,3,47,33,634,['n'],0,left,['1'],6,103,[-0.06201145],85,47,medium,minus,dotcolour,alfa,,,104,22,M,R,
431,53,11,10,3,33,47,550,['c'],0,right,['1'],6,54,[0.04020854],83,47,medium,minus,dotcolour,alfa,,,104,22,M,R,
432,54,12,10,3,36,44,750,['c'],0,right,['1'],6,87,[0.05389712],84,44,hard,minus,dotcolour,alfa,,,104,22,M,R,
433,55,13,10,3,47,33,1167,['n'],0,left,['1'],6,102,[-0.03686345],74,47,medium,minus,dotcolour,alfa,,,104,22,M,R,
434,56,14,10,3,47,33,634,['c'],1,left,['2'],5,571,[0.23661231],94,47,medium,minus,dotcolour,alfa,,,104,22,M,R,
435,57,15,10,3,27,53,649,['n'],1,right,['2'],5,43,[-0.09286006],98,53,easy,minus,dotcolour,alfa,,,104,22,M,R,
436,58,16,10,3,44,36,700,['c'],1,left,['1'],6,326,[0.19804435],96,44,hard,minus,dotcolour,alfa,,,104,22,M,R,
437,59,17,10,3,47,33,1199,['c'],1,left,['3'],4,50,[0.06779009],94,47,medium,minus,dotcolour,alfa,,,104,22,M,R,
438,60,18,10,3,44,36,667,['n'],0,left,['2'],5,303,[-0.03650194],64,44,hard,minus,dotcolour,alfa,,,104,22,M,R,
439,61,19,10,3,27,53,900,['n'],1,right,['3'],4,240,[-0.15456369],94,53,easy,minus,dotcolour,alfa,,,104,22,M,R,
440,62,20,10,3,53,27,951,['c'],1,left,['1'],6,313,[0.03385188],63,53,easy,minus,dotcolour,alfa,,,104,22,M,R,
441,63,21,10,3,33,47,1200,['n'],1,right,['3'],4,246,[-0.14926504],94,47,medium,minus,dotcolour,alfa,,,104,22,M,R,
442,64,22,10,3,33,47,599,['n'],1,right,['2'],5,117,[-0.15355142],98,47,medium,minus,dotcolour,alfa,,,104,22,M,R,
443,65,23,10,3,44,36,667,['c'],1,left,['2'],5,23,[0.0756921],99,44,hard,minus,dotcolour,alfa,,,104,22,M,R,
444,66,24,10,3,53,27,717,['c'],1,left,['2'],5,580,[0.12646674],82,53,easy,minus,dotcolour,alfa,,,104,22,M,R,
445,67,25,10,3,53,27,667,['n'],0,left,['2'],5,19,[-0.07686537],99,53,easy,minus,dotcolour,alfa,,,104,22,M,R,
446,68,26,10,3,44,36,317,['c'],1,left,['2'],5,495,[0.03725795],62,44,hard,minus,dotcolour,alfa,,,104,22,M,R,
447,69,27,10,3,47,33,433,['n'],0,left,['3'],4,99,[-0.04475044],78,47,medium,minus,dotcolour,alfa,,,104,22,M,R,
448,70,28,10,3,27,53,433,['c'],0,right,['2'],5,39,[0.09229085],99,53,easy,minus,dotcolour,alfa,,,104,22,M,R,
449,71,29,10,3,33,47,334,['n'],1,right,['2'],5,82,[-0.1348673],99,47,medium,minus,dotcolour,alfa,,,104,22,M,R,
450,72,30,10,3,36,44,517,['n'],1,right,['2'],5,35,[-0.05996488],95,44,hard,minus,dotcolour,alfa,,,104,22,M,R,
451,73,31,10,3,36,44,108,['n'],1,right,['2'],5,35,[-0.09239737],99,44,hard,minus,dotcolour,alfa,,,104,22,M,R,
452,74,32,10,3,33,47,1334,['n'],1,right,['2'],5,118,[-0.09961303],93,47,medium,minus,dotcolour,alfa,,,104,22,M,R,
453,75,33,10,3,27,53,717,['n'],1,right,['2'],5,69,[-0.0344049],76,53,easy,minus,dotcolour,alfa,,,104,22,M,R,
454,76,34,10,3,53,27,517,['c'],1,left,['2'],5,256,[0.13901925],92,53,easy,minus,dotcolour,alfa,,,104,22,M,R,
455,77,35,10,3,36,44,650,['n'],1,right,['2'],5,69,[-0.06746285],91,44,hard,minus,dotcolour,alfa,,,104,22,M,R,
456,78,36,10,3,44,36,584,['n'],0,left,['2'],5,36,[-0.07309126],97,44,hard,minus,dotcolour,alfa,,,104,22,M,R,
457,79,37,10,3,36,44,666,['n'],1,right,['2'],5,56,[-0.11131199],99,44,hard,minus,dotcolour,alfa,,,104,22,M,R,
458,80,38,10,3,27,53,767,['n'],1,right,['2'],5,65,[-0.07243186],93,53,easy,minus,dotcolour,alfa,,,104,22,M,R,
459,81,39,10,3,36,44,1068,['c'],0,right,['3'],4,84,[0.06066315],87,44,hard,minus,dotcolour,alfa,,,104,22,M,R,
460,82,40,10,3,53,27,633,['c'],1,left,['2'],5,74,[0.11354398],98,53,easy,minus,dotcolour,alfa,,,104,22,M,R,
461,83,41,10,3,53,27,550,['c'],1,left,['2'],5,482,[-0.02512321],42,53,easy,minus,dotcolour,alfa,,,104,22,M,R,
462,84,0,11,3,44,36,884,['c'],1,left,['1'],6,128,[0.05147312],78,44,hard,minus,dotcolour,alfa,,,104,22,M,R,
463,85,1,11,3,44,36,850,['c'],1,left,['2'],5,90,[0.02434925],67,44,hard,minus,dotcolour,alfa,,,104,22,M,R,
464,86,2,11,3,53,27,734,['c'],1,left,['1'],6,74,[0.12727031],99,53,easy,minus,dotcolour,alfa,,,104,22,M,R,
465,87,3,11,3,53,27,484,['c'],1,left,['1'],6,77,[0.06523103],89,53,easy,minus,dotcolour,alfa,,,104,22,M,R,
466,88,4,11,3,36,44,683,['n'],1,right,['2'],5,160,[-0.02353827],63,44,hard,minus,dotcolour,alfa,,,104,22,M,R,
467,89,5,11,3,27,53,551,['n'],1,right,['1'],6,324,[-0.15036629],92,53,easy,minus,dotcolour,alfa,,,104,22,M,R,
468,90,6,11,3,47,33,666,['c'],1,left,['1'],6,102,[0.09511343],94,47,medium,minus,dotcolour,alfa,,,104,22,M,R,
469,91,7,11,3,47,33,701,['c'],1,left,['1'],6,7,[0.05487965],100,47,medium,minus,dotcolour,alfa,,,104,22,M,R,
470,92,8,11,3,53,27,634,['c'],1,left,['1'],6,94,[0.11582175],97,53,easy,minus,dotcolour,alfa,,,104,22,M,R,
471,93,9,11,3,27,53,767,['n'],1,right,['1'],6,141,[-0.12570109],95,53,easy,minus,dotcolour,alfa,,,104,22,M,R,
472,94,10,11,3,27,53,533,['n'],1,right,['1'],6,123,[-0.12042183],96,53,easy,minus,dotcolour,alfa,,,104,22,M,R,
473,95,11,11,3,33,47,533,['n'],1,right,['1'],6,74,[-0.08830684],95,47,medium,minus,dotcolour,alfa,,,104,22,M,R,
474,96,12,11,3,36,44,783,['c'],0,right,['1'],6,65,[0.05130441],86,44,hard,minus,dotcolour,alfa,,,104,22,M,R,
475,97,13,11,3,47,33,550,['c'],1,left,['1'],6,97,[0.0485377],80,47,medium,minus,dotcolour,alfa,,,104,22,M,R,
476,98,14,11,3,36,44,717,['n'],1,right,['1'],6,74,[-0.06851745],91,44,hard,minus,dotcolour,alfa,,,104,22,M,R,
477,99,15,11,3,36,44,767,['n'],1,right,['1'],6,97,[-0.04000025],76,44,hard,minus,dotcolour,alfa,,,104,22,M,R,
478,100,16,11,3,33,47,766,['n'],1,right,['2'],5,80,[-0.08592787],94,47,medium,minus,dotcolour,alfa,,,104,22,M,R,
479,101,17,11,3,27,53,567,['n'],1,right,['2'],5,72,[-0.08871909],95,53,easy,minus,dotcolour,alfa,,,104,22,M,R,
480,102,18,11,3,27,53,684,['n'],1,right,['2'],5,51,[-0.04704573],87,53,easy,minus,dotcolour,alfa,,,104,22,M,R,
481,103,19,11,3,27,53,483,['n'],1,right,['2'],5,47,[-0.13752252],100,53,easy,minus,dotcolour,alfa,,,104,22,M,R,
482,104,20,11,3,44,36,750,['c'],1,left,['1'],6,57,[0.09483794],97,44,hard,minus,dotcolour,alfa,,,104,22,M,R,
483,105,21,11,3,53,27,767,['c'],1,left,['1'],6,97,[0.06636039],87,53,easy,minus,dotcolour,alfa,,,104,22,M,R,
484,106,22,11,3,33,47,667,['n'],1,right,['2'],5,76,[-0.03670088],77,47,medium,minus,dotcolour,alfa,,,104,22,M,R,
485,107,23,11,3,44,36,683,['c'],1,left,['1'],6,30,[0.05290613],94,44,hard,minus,dotcolour,alfa,,,104,22,M,R,
486,108,24,11,3,47,33,851,['c'],1,left,['1'],6,141,[0.0454403],75,47,medium,minus,dotcolour,alfa,,,104,22,M,R,
487,109,25,11,3,36,44,683,['n'],1,right,['2'],5,61,[-0.0539073],88,44,hard,minus,dotcolour,alfa,,,104,22,M,R,
488,110,26,11,3,36,44,800,['n'],1,right,['2'],5,51,[-0.09418953],98,44,hard,minus,dotcolour,alfa,,,104,22,M,R,
489,111,27,11,3,44,36,634,['c'],1,left,['2'],5,57,[0.04850581],86,44,hard,minus,dotcolour,alfa,,,104,22,M,R,
490,112,28,11,3,36,44,600,['c'],0,right,['1'],6,80,[0.10607265],97,44,hard,minus,dotcolour,alfa,,,104,22,M,R,
491,113,29,11,3,33,47,751,['n'],1,right,['2'],5,80,[-0.10341579],96,47,medium,minus,dotcolour,alfa,,,104,22,M,R,
492,114,30,11,3,27,53,617,['n'],1,right,['2'],5,69,[-0.05229509],86,53,easy,minus,dotcolour,alfa,,,104,22,M,R,
493,115,31,11,3,53,27,784,['c'],1,left,['1'],6,60,[0.07613022],94,53,easy,minus,dotcolour,alfa,,,104,22,M,R,
494,116,32,11,3,44,36,584,['n'],0,left,['2'],5,68,[-0.1100734],98,44,hard,minus,dotcolour,alfa,,,104,22,M,R,
495,117,33,11,3,53,27,700,['c'],1,left,['1'],6,87,[0.10878469],97,53,easy,minus,dotcolour,alfa,,,104,22,M,R,
496,118,34,11,3,53,27,717,['c'],1,left,['1'],6,48,[0.05108978],89,53,easy,minus,dotcolour,alfa,,,104,22,M,R,
497,119,35,11,3,44,36,567,['c'],1,left,['1'],6,41,[0.0274911],77,44,hard,minus,dotcolour,alfa,,,104,22,M,R,
498,120,36,11,3,47,33,834,['n'],0,left,['2'],5,55,[-0.05727793],90,47,medium,minus,dotcolour,alfa,,,104,22,M,R,
499,121,37,11,3,33,47,1016,['n'],1,right,['2'],5,77,[-0.1008776],96,47,medium,minus,dotcolour,alfa,,,104,22,M,R,
500,122,38,11,3,33,47,518,['n'],1,right,['2'],5,23,[-0.08506469],99,47,medium,minus,dotcolour,alfa,,,104,22,M,R,
501,123,39,11,3,33,47,567,['n'],1,right,['2'],5,73,[-0.0492661],84,47,medium,minus,dotcolour,alfa,,,104,22,M,R,
502,124,40,11,3,47,33,600,['c'],1,left,['1'],6,72,[0.06090846],89,47,medium,minus,dotcolour,alfa,,,104,22,M,R,
503,125,41,11,3,47,33,667,['c'],1,left,['2'],5,67,[0.06222971],90,47,medium,minus,dotcolour,alfa,,,104,22,M,R,
504,0,0,12,4,33,47,417,['n'],1,right,['2'],5,27,[-0.08109274],100,47,medium,plus,dotcolour,alfa,,,104,22,M,R,
505,1,1,12,4,27,53,600,['n'],1,right,['2'],5,35,[-0.088913],100,53,easy,plus,dotcolour,alfa,,,104,22,M,R,
506,2,2,12,4,36,44,534,['n'],1,right,['2'],5,62,[-0.06320718],100,44,hard,plus,dotcolour,alfa,,,104,22,M,R,
507,3,3,12,4,53,27,633,['c'],1,left,['1'],6,35,[0.03932008],100,53,easy,plus,dotcolour,alfa,,,104,22,M,R,
508,4,4,12,4,27,53,517,['n'],1,right,['1'],6,63,[-0.08951326],100,53,easy,plus,dotcolour,alfa,,,104,22,M,R,
509,5,5,12,4,44,36,683,['c'],1,left,['1'],6,42,[0.09468662],100,44,hard,plus,dotcolour,alfa,,,104,22,M,R,
510,6,6,12,4,53,27,799,['c'],1,left,['1'],6,25,[0.10640873],100,53,easy,plus,dotcolour,alfa,,,104,22,M,R,
511,7,7,12,4,36,44,500,['n'],1,right,['1'],6,77,[-0.11589796],100,44,hard,plus,dotcolour,alfa,,,104,22,M,R,
512,8,8,12,4,44,36,517,['c'],1,left,['1'],6,23,[0.08765158],100,44,hard,plus,dotcolour,alfa,,,104,22,M,R,
513,9,9,12,4,36,44,584,['n'],1,right,['1'],6,24,[-0.03586786],100,44,hard,plus,dotcolour,alfa,,,104,22,M,R,
514,10,10,12,4,53,27,716,['c'],1,left,['1'],6,20,[0.09202308],100,53,easy,plus,dotcolour,alfa,,,104,22,M,R,
515,11,11,12,4,27,53,550,['n'],1,right,['1'],6,46,[-0.09179533],100,53,easy,plus,dotcolour,alfa,,,104,22,M,R,
516,12,12,12,4,44,36,550,['c'],1,left,['1'],6,576,[0.09156353],99,44,hard,plus,dotcolour,alfa,,,104,22,M,R,
517,13,13,12,4,36,44,1517,['c'],0,right,['1'],6,245,[0.06170424],99,44,hard,plus,dotcolour,alfa,,,104,22,M,R,
518,14,14,12,4,53,27,634,['n'],0,left,['1'],6,75,[-0.08866549],100,53,easy,plus,dotcolour,alfa,,,104,22,M,R,
519,15,15,12,4,53,27,1566,['c'],1,left,['1'],6,251,[0.06145167],99,53,easy,plus,dotcolour,alfa,,,104,22,M,R,
520,16,16,12,4,44,36,684,['n'],0,left,['1'],6,54,[-0.07875075],100,44,hard,plus,dotcolour,alfa,,,104,22,M,R,
521,17,17,12,4,47,33,1200,['c'],1,left,['1'],6,190,[0.12266859],100,47,medium,plus,dotcolour,alfa,,,104,22,M,R,
522,18,18,12,4,33,47,1400,['n'],1,right,['1'],6,383,[-0.15384225],100,47,medium,plus,dotcolour,alfa,,,104,22,M,R,
523,19,19,12,4,33,47,733,['n'],1,right,['1'],6,132,[-0.032352],96,47,medium,plus,dotcolour,alfa,,,104,22,M,R,
524,20,20,12,4,47,33,1150,['n'],0,left,['2'],5,130,[-0.03007769],95,47,medium,plus,dotcolour,alfa,,,104,22,M,R,
525,21,21,12,4,33,47,2633,['c'],0,right,['2'],5,836,[0.09673405],98,47,medium,plus,dotcolour,alfa,,,104,22,M,R,
526,22,22,12,4,27,53,801,['n'],1,right,['1'],6,84,[-0.0421194],99,53,easy,plus,dotcolour,alfa,,,104,22,M,R,
527,23,23,12,4,44,36,533,['n'],0,left,['1'],6,69,[-0.07679853],100,44,hard,plus,dotcolour,alfa,,,104,22,M,R,
528,24,24,12,4,33,47,499,['n'],1,right,['1'],6,64,[-0.08975161],100,47,medium,plus,dotcolour,alfa,,,104,22,M,R,
529,25,25,12,4,47,33,784,['c'],1,left,['1'],6,78,[0.07997243],100,47,medium,plus,dotcolour,alfa,,,104,22,M,R,
530,26,26,12,4,27,53,550,['n'],1,right,['1'],6,87,[-0.05025447],100,53,easy,plus,dotcolour,alfa,,,104,22,M,R,
531,27,27,12,4,36,44,583,['c'],0,right,['1'],6,62,[0.08579246],100,44,hard,plus,dotcolour,alfa,,,104,22,M,R,
532,28,28,12,4,44,36,667,['c'],1,left,['1'],6,25,[0.0792867],100,44,hard,plus,dotcolour,alfa,,,104,22,M,R,
533,29,29,12,4,36,44,866,['n'],1,right,['1'],6,87,[-0.08248675],100,44,hard,plus,dotcolour,alfa,,,104,22,M,R,
534,30,30,12,4,27,53,516,['n'],1,right,['1'],6,24,[-0.07143755],100,53,easy,plus,dotcolour,alfa,,,104,22,M,R,
535,31,31,12,4,53,27,533,['c'],1,left,['1'],6,3,[0.07240469],100,53,easy,plus,dotcolour,alfa,,,104,22,M,R,
536,32,32,12,4,47,33,550,['c'],1,left,['1'],6,7,[0.07612107],100,47,medium,plus,dotcolour,alfa,,,104,22,M,R,
537,33,33,12,4,53,27,717,['c'],1,left,['1'],6,19,[0.09402987],100,53,easy,plus,dotcolour,alfa,,,104,22,M,R,
538,34,34,12,4,27,53,549,['n'],1,right,['1'],6,55,[-0.04865717],100,53,easy,plus,dotcolour,alfa,,,104,22,M,R,
539,35,35,12,4,47,33,616,['c'],1,left,['1'],6,29,[0.06172604],100,47,medium,plus,dotcolour,alfa,,,104,22,M,R,
540,36,36,12,4,47,33,734,['c'],1,left,['1'],6,7,[0.08746606],100,47,medium,plus,dotcolour,alfa,,,104,22,M,R,
541,37,37,12,4,44,36,550,['c'],1,left,['1'],6,65,[0.07850599],100,44,hard,plus,dotcolour,alfa,,,104,22,M,R,
542,38,38,12,4,36,44,600,['n'],1,right,['1'],6,72,[-0.1078322],100,44,hard,plus,dotcolour,alfa,,,104,22,M,R,
543,39,39,12,4,33,47,767,['n'],1,right,['1'],6,200,[-0.10937223],100,47,medium,plus,dotcolour,alfa,,,104,22,M,R,
544,40,40,12,4,47,33,566,['c'],1,left,['1'],6,515,[0.06658768],97,47,medium,plus,dotcolour,alfa,,,104,22,M,R,
545,41,41,12,4,33,47,550,['n'],1,right,['1'],6,58,[-0.10740183],100,47,medium,plus,dotcolour,alfa,,,104,22,M,R,
546,42,0,13,4,36,44,583,['c'],0,right,['1'],6,524,[0.0430239],89,44,hard,plus,dotcolour,alfa,,,104,22,M,R,
547,43,1,13,4,33,47,567,['n'],1,right,['1'],6,49,[-0.10020771],100,47,medium,plus,dotcolour,alfa,,,104,22,M,R,
548,44,2,13,4,53,27,617,['c'],1,left,['1'],6,56,[0.06247759],100,53,easy,plus,dotcolour,alfa,,,104,22,M,R,
549,45,3,13,4,36,44,516,['c'],0,right,['1'],6,35,[0.03763493],100,44,hard,plus,dotcolour,alfa,,,104,22,M,R,
550,46,4,13,4,27,53,517,['n'],1,right,['1'],6,78,[-0.08927442],100,53,easy,plus,dotcolour,alfa,,,104,22,M,R,
551,47,5,13,4,33,47,515,['n'],1,right,['1'],6,39,[-0.06864306],100,47,medium,plus,dotcolour,alfa,,,104,22,M,R,
552,48,6,13,4,44,36,567,['c'],1,left,['1'],6,8,[0.05720969],100,44,hard,plus,dotcolour,alfa,,,104,22,M,R,
553,49,7,13,4,47,33,466,['c'],1,left,['1'],6,22,[0.07405039],100,47,medium,plus,dotcolour,alfa,,,104,22,M,R,
554,50,8,13,4,27,53,616,['n'],1,right,['1'],6,78,[-0.07071832],100,53,easy,plus,dotcolour,alfa,,,104,22,M,R,
555,51,9,13,4,47,33,684,['c'],1,left,['1'],6,25,[0.05321426],100,47,medium,plus,dotcolour,alfa,,,104,22,M,R,
556,52,10,13,4,53,27,684,['c'],1,left,['1'],6,14,[0.07680626],100,53,easy,plus,dotcolour,alfa,,,104,22,M,R,
557,53,11,13,4,44,36,600,['c'],1,left,['1'],6,519,[0.08667739],99,44,hard,plus,dotcolour,alfa,,,104,22,M,R,
558,54,12,13,4,36,44,534,['n'],1,right,['2'],5,70,[-0.12571112],100,44,hard,plus,dotcolour,alfa,,,104,22,M,R,
559,55,13,13,4,53,27,584,['c'],1,left,['1'],6,29,[0.06976335],100,53,easy,plus,dotcolour,alfa,,,104,22,M,R,
560,56,14,13,4,33,47,617,['n'],1,right,['2'],5,68,[-0.10821764],100,47,medium,plus,dotcolour,alfa,,,104,22,M,R,
561,57,15,13,4,27,53,501,['n'],1,right,['1'],6,64,[-0.0680998],100,53,easy,plus,dotcolour,alfa,,,104,22,M,R,
562,58,16,13,4,36,44,882,['n'],1,right,['1'],6,123,[-0.09159522],100,44,hard,plus,dotcolour,alfa,,,104,22,M,R,
563,59,17,13,4,36,44,767,['n'],1,right,['1'],6,57,[-0.08182962],100,44,hard,plus,dotcolour,alfa,,,104,22,M,R,
564,60,18,13,4,47,33,617,['c'],1,left,['1'],6,87,[0.08456671],100,47,medium,plus,dotcolour,alfa,,,104,22,M,R,
565,61,19,13,4,47,33,534,['c'],1,left,['1'],6,39,[0.08783951],100,47,medium,plus,dotcolour,alfa,,,104,22,M,R,
566,62,20,13,4,33,47,567,['n'],1,right,['1'],6,41,[-0.06409515],100,47,medium,plus,dotcolour,alfa,,,104,22,M,R,
567,63,21,13,4,47,33,601,['c'],1,left,['1'],6,24,[0.08454082],100,47,medium,plus,dotcolour,alfa,,,104,22,M,R,
568,64,22,13,4,27,53,533,['n'],1,right,['1'],6,83,[-0.08050012],100,53,easy,plus,dotcolour,alfa,,,104,22,M,R,
569,65,23,13,4,27,53,483,['n'],1,right,['1'],6,29,[-0.08703864],100,53,easy,plus,dotcolour,alfa,,,104,22,M,R,
570,66,24,13,4,47,33,750,['c'],1,left,['1'],6,63,[0.0286715],98,47,medium,plus,dotcolour,alfa,,,104,22,M,R,
571,67,25,13,4,44,36,717,['n'],0,left,['1'],6,81,[-0.0966105],100,44,hard,plus,dotcolour,alfa,,,104,22,M,R,
572,68,26,13,4,47,33,566,['c'],1,left,['1'],6,1,[0.07037132],100,47,medium,plus,dotcolour,alfa,,,104,22,M,R,
573,69,27,13,4,44,36,618,['c'],1,left,['1'],6,66,[0.09670965],100,44,hard,plus,dotcolour,alfa,,,104,22,M,R,
574,70,28,13,4,44,36,750,['n'],0,left,['1'],6,66,[-0.07544328],100,44,hard,plus,dotcolour,alfa,,,104,22,M,R,
575,71,29,13,4,36,44,550,['n'],1,right,['1'],6,83,[-0.06739856],100,44,hard,plus,dotcolour,alfa,,,104,22,M,R,
576,72,30,13,4,36,44,567,['n'],1,right,['1'],6,11,[-0.06039768],100,44,hard,plus,dotcolour,alfa,,,104,22,M,R,
577,73,31,13,4,53,27,700,['c'],1,left,['1'],6,31,[0.1209117],100,53,easy,plus,dotcolour,alfa,,,104,22,M,R,
578,74,32,13,4,33,47,550,['n'],1,right,['1'],6,33,[-0.07970507],100,47,medium,plus,dotcolour,alfa,,,104,22,M,R,
579,75,33,13,4,33,47,534,['n'],1,right,['1'],6,20,[-0.09224536],100,47,medium,plus,dotcolour,alfa,,,104,22,M,R,
580,76,34,13,4,53,27,434,['c'],1,left,['1'],6,107,[0.068158],100,53,easy,plus,dotcolour,alfa,,,104,22,M,R,
581,77,35,13,4,44,36,1000,['c'],1,left,['1'],6,88,[0.05107822],100,44,hard,plus,dotcolour,alfa,,,104,22,M,R,
582,78,36,13,4,53,27,517,['c'],1,left,['1'],6,81,[0.08797884],100,53,easy,plus,dotcolour,alfa,,,104,22,M,R,
583,79,37,13,4,27,53,584,['n'],1,right,['1'],6,120,[-0.01463642],82,53,easy,plus,dotcolour,alfa,,,104,22,M,R,
584,80,38,13,4,33,47,633,['n'],1,right,['2'],5,107,[-0.09983854],100,47,medium,plus,dotcolour,alfa,,,104,22,M,R,
585,81,39,13,4,27,53,534,['n'],1,right,['1'],6,50,[-0.05273616],100,53,easy,plus,dotcolour,alfa,,,104,22,M,R,
586,82,40,13,4,53,27,584,['c'],1,left,['1'],6,50,[0.09133798],100,53,easy,plus,dotcolour,alfa,,,104,22,M,R,
587,83,41,13,4,44,36,650,['n'],0,left,['1'],6,80,[-0.09251919],100,44,hard,plus,dotcolour,alfa,,,104,22,M,R,
588,84,0,14,4,27,53,584,['n'],1,right,['1'],6,55,[-0.04486114],100,53,easy,plus,dotcolour,alfa,,,104,22,M,R,
589,85,1,14,4,53,27,483,['c'],1,left,['1'],6,43,[0.07950249],100,53,easy,plus,dotcolour,alfa,,,104,22,M,R,
590,86,2,14,4,33,47,250,['n'],1,right,['1'],6,80,[-0.04688419],100,47,medium,plus,dotcolour,alfa,,,104,22,M,R,
591,87,3,14,4,44,36,634,['c'],1,left,['1'],6,157,[0.07955516],100,44,hard,plus,dotcolour,alfa,,,104,22,M,R,
592,88,4,14,4,36,44,451,['n'],1,right,['1'],6,118,[-0.0891632],100,44,hard,plus,dotcolour,alfa,,,104,22,M,R,
593,89,5,14,4,33,47,566,['c'],0,right,['2'],5,141,[0.10965951],100,47,medium,plus,dotcolour,alfa,,,104,22,M,R,
594,90,6,14,4,47,33,534,['c'],1,left,['2'],5,58,[0.01381798],89,47,medium,plus,dotcolour,alfa,,,104,22,M,R,
595,91,7,14,4,47,33,667,['c'],1,left,['1'],6,62,[0.05346571],100,47,medium,plus,dotcolour,alfa,,,104,22,M,R,
596,92,8,14,4,44,36,566,['c'],1,left,['1'],6,70,[0.11896305],100,44,hard,plus,dotcolour,alfa,,,104,22,M,R,
597,93,9,14,4,36,44,551,['c'],0,right,['1'],6,39,[0.02924839],100,44,hard,plus,dotcolour,alfa,,,104,22,M,R,
598,94,10,14,4,53,27,232,['n'],0,left,['1'],6,109,[-0.11403873],100,53,easy,plus,dotcolour,alfa,,,104,22,M,R,
599,95,11,14,4,27,53,267,['c'],0,right,['1'],6,94,[0.03844697],99,53,easy,plus,dotcolour,alfa,,,104,22,M,R,
600,96,12,14,4,27,53,450,['n'],1,right,['2'],5,122,[-0.09064707],100,53,easy,plus,dotcolour,alfa,,,104,22,M,R,
601,97,13,14,4,33,47,651,['c'],0,right,['2'],5,37,[0.05212298],100,47,medium,plus,dotcolour,alfa,,,104,22,M,R,
602,98,14,14,4,47,33,350,['c'],1,left,['2'],5,111,[0.11736158],100,47,medium,plus,dotcolour,alfa,,,104,22,M,R,
603,99,15,14,4,36,44,197,['n'],1,right,['2'],5,124,[-0.10868127],100,44,hard,plus,dotcolour,alfa,,,104,22,M,R,
604,100,16,14,4,27,53,434,['c'],0,right,['3'],4,246,[0.01099141],69,53,easy,plus,dotcolour,alfa,,,104,22,M,R,
605,101,17,14,4,44,36,517,['n'],0,left,['2'],5,193,[-0.04969764],98,44,hard,plus,dotcolour,alfa,,,104,22,M,R,
606,102,18,14,4,47,33,215,['c'],1,left,['2'],5,98,[0.06993986],100,47,medium,plus,dotcolour,alfa,,,104,22,M,R,
607,103,19,14,4,36,44,483,['n'],1,right,['2'],5,67,[-0.08664249],100,44,hard,plus,dotcolour,alfa,,,104,22,M,R,
608,104,20,14,4,36,44,300,['c'],0,right,['2'],5,62,[0.06569694],100,44,hard,plus,dotcolour,alfa,,,104,22,M,R,
609,105,21,14,4,33,47,267,['n'],1,right,['2'],5,130,[-0.08742328],100,47,medium,plus,dotcolour,alfa,,,104,22,M,R,
610,106,22,14,4,44,36,232,['n'],0,left,['3'],4,117,[-0.07527502],100,44,hard,plus,dotcolour,alfa,,,104,22,M,R,
611,107,23,14,4,47,33,216,['c'],1,left,['3'],4,90,[0.08166761],100,47,medium,plus,dotcolour,alfa,,,104,22,M,R,
612,108,24,14,4,44,36,450,['c'],1,left,['2'],5,21,[0.06626898],100,44,hard,plus,dotcolour,alfa,,,104,22,M,R,
613,109,25,14,4,33,47,433,['c'],0,right,['2'],5,500,[0.03484968],85,47,medium,plus,dotcolour,alfa,,,104,22,M,R,
614,110,26,14,4,27,53,667,['c'],0,right,['1'],6,311,[0.07105764],99,53,easy,plus,dotcolour,alfa,,,104,22,M,R,
615,111,27,14,4,53,27,267,['n'],0,left,['1'],6,145,[-0.02700918],93,53,easy,plus,dotcolour,alfa,,,104,22,M,R,
616,112,28,14,4,47,33,533,['c'],1,left,['1'],6,223,[0.08756109],100,47,medium,plus,dotcolour,alfa,,,104,22,M,R,
617,113,29,14,4,36,44,650,['n'],1,right,['1'],6,133,[-0.08403691],100,44,hard,plus,dotcolour,alfa,,,104,22,M,R,
618,114,30,14,4,27,53,633,['n'],1,right,['1'],6,111,[-0.10578178],100,53,easy,plus,dotcolour,alfa,,,104,22,M,R,
619,115,31,14,4,53,27,533,['c'],1,left,['1'],6,72,[0.08586999],100,53,easy,plus,dotcolour,alfa,,,104,22,M,R,
620,116,32,14,4,53,27,534,['n'],0,left,['1'],6,369,[-0.09440364],100,53,easy,plus,dotcolour,alfa,,,104,22,M,R,
621,117,33,14,4,47,33,633,['c'],1,left,['1'],6,58,[0.06777599],100,47,medium,plus,dotcolour,alfa,,,104,22,M,R,
622,118,34,14,4,33,47,584,['n'],1,right,['1'],6,42,[-0.06134765],100,47,medium,plus,dotcolour,alfa,,,104,22,M,R,
623,119,35,14,4,36,44,567,['n'],1,right,['1'],6,106,[-0.05995403],100,44,hard,plus,dotcolour,alfa,,,104,22,M,R,
624,120,36,14,4,53,27,484,['c'],1,left,['1'],6,52,[0.08731063],100,53,easy,plus,dotcolour,alfa,,,104,22,M,R,
625,121,37,14,4,53,27,534,['c'],1,left,['1'],6,53,[0.06431003],100,53,easy,plus,dotcolour,alfa,,,104,22,M,R,
626,122,38,14,4,44,36,517,['c'],1,left,['1'],6,64,[0.0721648],100,44,hard,plus,dotcolour,alfa,,,104,22,M,R,
627,123,39,14,4,33,47,599,['n'],1,right,['1'],6,71,[-0.11149563],100,47,medium,plus,dotcolour,alfa,,,104,22,M,R,
628,124,40,14,4,44,36,950,['n'],0,left,['1'],6,71,[-0.10202527],100,44,hard,plus,dotcolour,alfa,,,104,22,M,R,
629,125,41,14,4,27,53,517,['n'],1,right,['1'],6,42,[-0.09340341],100,53,easy,plus,dotcolour,alfa,,,104,22,M,R,
630,0,0,15,5,53,27,551,['c'],1,left,['1'],6,30,[0.06119427],96,53,easy,minus,dotcolour,alfa,,,104,22,M,R,
631,1,1,15,5,47,33,1634,['n'],0,left,['3'],4,68,[-0.07092022],92,47,medium,minus,dotcolour,alfa,,,104,22,M,R,
632,2,2,15,5,53,27,800,['c'],1,left,['2'],5,475,[0.29241997],98,53,easy,minus,dotcolour,alfa,,,104,22,M,R,
633,3,3,15,5,27,53,533,['n'],1,right,['2'],5,51,[-0.10822583],99,53,easy,minus,dotcolour,alfa,,,104,22,M,R,
634,4,4,15,5,44,36,267,['n'],0,left,['1'],6,72,[-0.06962365],91,44,hard,minus,dotcolour,alfa,,,104,22,M,R,
635,5,5,15,5,33,47,333,['n'],1,right,['3'],4,41,[-0.04477076],88,47,medium,minus,dotcolour,alfa,,,104,22,M,R,
636,6,6,15,5,44,36,834,['c'],1,left,['2'],5,560,[0.09728372],76,44,hard,minus,dotcolour,alfa,,,104,22,M,R,
637,7,7,15,5,36,44,467,['n'],1,right,['2'],5,64,[-0.07911992],94,44,hard,minus,dotcolour,alfa,,,104,22,M,R,
638,8,8,15,5,33,47,500,['n'],1,right,['2'],5,106,[-0.11296218],96,47,medium,minus,dotcolour,alfa,,,104,22,M,R,
639,9,9,15,5,53,27,717,['n'],0,left,['1'],6,179,[-0.03099333],66,53,easy,minus,dotcolour,alfa,,,104,22,M,R,
640,10,10,15,5,27,53,249,['n'],1,right,['2'],5,115,[-0.09710201],93,53,easy,minus,dotcolour,alfa,,,104,22,M,R,
641,11,11,15,5,33,47,1517,['c'],0,right,['2'],5,355,[0.12963775],88,47,medium,minus,dotcolour,alfa,,,104,22,M,R,
642,12,12,15,5,53,27,316,['n'],0,left,['2'],5,89,[-0.08068234],92,53,easy,minus,dotcolour,alfa,,,104,22,M,R,
643,13,13,15,5,33,47,783,['n'],1,right,['2'],5,72,[-0.09253881],96,47,medium,minus,dotcolour,alfa,,,104,22,M,R,
644,14,14,15,5,47,33,635,['c'],1,left,['2'],5,85,[0.05524928],85,47,medium,minus,dotcolour,alfa,,,104,22,M,R,
645,15,15,15,5,44,36,617,['c'],1,left,['2'],5,18,[0.07610516],99,44,hard,minus,dotcolour,alfa,,,104,22,M,R,
646,16,16,15,5,36,44,500,['n'],1,right,['2'],5,71,[-0.10438965],97,44,hard,minus,dotcolour,alfa,,,104,22,M,R,
647,17,17,15,5,36,44,517,['n'],1,right,['2'],5,97,[-0.08908338],93,44,hard,minus,dotcolour,alfa,,,104,22,M,R,
648,18,18,15,5,44,36,500,['n'],0,left,['2'],5,114,[-0.04615621],77,44,hard,minus,dotcolour,alfa,,,104,22,M,R,
649,19,19,15,5,27,53,584,['n'],1,right,['2'],5,72,[-0.11024517],98,53,easy,minus,dotcolour,alfa,,,104,22,M,R,
650,20,20,15,5,36,44,2184,['n'],1,right,['2'],5,95,[-0.07600171],90,44,hard,minus,dotcolour,alfa,,,104,22,M,R,
651,21,21,15,5,33,47,650,['n'],1,right,['2'],5,11,[-0.07245453],100,47,medium,minus,dotcolour,alfa,,,104,22,M,R,
652,22,22,15,5,33,47,716,['n'],1,right,['2'],5,70,[-0.0923501],96,47,medium,minus,dotcolour,alfa,,,104,22,M,R,
653,23,23,15,5,47,33,766,['c'],1,left,['2'],5,23,[0.06752012],98,47,medium,minus,dotcolour,alfa,,,104,22,M,R,
654,24,24,15,5,47,33,584,['c'],1,left,['2'],5,16,[0.07609018],100,47,medium,minus,dotcolour,alfa,,,104,22,M,R,
655,25,25,15,5,33,47,650,['c'],0,right,['2'],5,6,[0.05778388],100,47,medium,minus,dotcolour,alfa,,,104,22,M,R,
656,26,26,15,5,27,53,500,['c'],0,right,['2'],5,61,[0.02946901],75,53,easy,minus,dotcolour,alfa,,,104,22,M,R,
657,27,27,15,5,53,27,701,['c'],1,left,['2'],5,62,[0.10392388],98,53,easy,minus,dotcolour,alfa,,,104,22,M,R,
658,28,28,15,5,44,36,650,['c'],1,left,['2'],5,28,[0.062643],97,44,hard,minus,dotcolour,alfa,,,104,22,M,R,
659,29,29,15,5,47,33,600,['c'],1,left,['2'],5,11,[0.08357371],100,47,medium,minus,dotcolour,alfa,,,104,22,M,R,
660,30,30,15,5,53,27,632,['c'],1,left,['1'],6,82,[0.08491982],94,53,easy,minus,dotcolour,alfa,,,104,22,M,R,
661,31,31,15,5,47,33,484,['c'],1,left,['1'],6,133,[0.11479504],94,47,medium,minus,dotcolour,alfa,,,104,22,M,R,
662,32,32,15,5,36,44,618,['c'],0,right,['1'],6,73,[0.06459926],90,44,hard,minus,dotcolour,alfa,,,104,22,M,R,
663,33,33,15,5,44,36,1234,['n'],0,left,['2'],5,102,[-0.05456538],82,44,hard,minus,dotcolour,alfa,,,104,22,M,R,
664,34,34,15,5,27,53,732,['n'],1,right,['2'],5,126,[-0.11746716],95,53,easy,minus,dotcolour,alfa,,,104,22,M,R,
665,35,35,15,5,36,44,667,['n'],1,right,['1'],6,71,[-0.06849187],91,44,hard,minus,dotcolour,alfa,,,104,22,M,R,
666,36,36,15,5,27,53,366,['n'],1,right,['2'],5,103,[-0.08197681],91,53,easy,minus,dotcolour,alfa,,,104,22,M,R,
667,37,37,15,5,53,27,189,['c'],1,left,['1'],6,85,[0.15524923],99,53,easy,minus,dotcolour,alfa,,,104,22,M,R,
668,38,38,15,5,36,44,417,['c'],0,right,['1'],6,178,[0.08789067],87,44,hard,minus,dotcolour,alfa,,,104,22,M,R,
669,39,39,15,5,27,53,600,['c'],0,right,['1'],6,60,[0.06151116],91,53,easy,minus,dotcolour,alfa,,,104,22,M,R,
670,40,40,15,5,47,33,533,['n'],0,left,['2'],5,149,[-0.03858821],71,47,medium,minus,dotcolour,alfa,,,104,22,M,R,
671,41,41,15,5,44,36,517,['c'],1,left,['2'],5,76,[0.06826903],90,44,hard,minus,dotcolour,alfa,,,104,22,M,R,
672,42,0,16,5,44,36,484,['c'],1,left,['1'],6,154,[0.13799237],96,44,hard,minus,dotcolour,alfa,,,104,22,M,R,
673,43,1,16,5,44,36,317,['c'],1,left,['1'],6,80,[0.0725941],91,44,hard,minus,dotcolour,alfa,,,104,22,M,R,
674,44,2,16,5,47,33,300,['c'],1,left,['2'],5,58,[0.08893163],97,47,medium,minus,dotcolour,alfa,,,104,22,M,R,
675,45,3,16,5,53,27,550,['c'],1,left,['2'],5,35,[0.07109072],97,53,easy,minus,dotcolour,alfa,,,104,22,M,R,
676,46,4,16,5,53,27,600,['c'],1,left,['2'],5,11,[0.07021413],100,53,easy,minus,dotcolour,alfa,,,104,22,M,R,
677,47,5,16,5,36,44,416,['n'],1,right,['2'],5,99,[-0.0665161],87,44,hard,minus,dotcolour,alfa,,,104,22,M,R,
678,48,6,16,5,27,53,650,['n'],1,right,['1'],6,30,[-0.07810462],98,53,easy,minus,dotcolour,alfa,,,104,22,M,R,
679,49,7,16,5,27,53,567,['n'],1,right,['1'],6,48,[-0.11044708],99,53,easy,minus,dotcolour,alfa,,,104,22,M,R,
680,50,8,16,5,44,36,800,['c'],1,left,['1'],6,71,[0.11240692],98,44,hard,minus,dotcolour,alfa,,,104,22,M,R,
681,51,9,16,5,44,36,583,['n'],0,left,['1'],6,70,[-0.0917911],96,44,hard,minus,dotcolour,alfa,,,104,22,M,R,
682,52,10,16,5,44,36,550,['n'],0,left,['1'],6,64,[-0.04275961],82,44,hard,minus,dotcolour,alfa,,,104,22,M,R,
683,53,11,16,5,47,33,601,['n'],0,left,['1'],6,22,[-0.07741985],99,47,medium,minus,dotcolour,alfa,,,104,22,M,R,
684,54,12,16,5,33,47,566,['n'],1,right,['1'],6,80,[-0.04094774],79,47,medium,minus,dotcolour,alfa,,,104,22,M,R,
685,55,13,16,5,33,47,700,['n'],1,right,['1'],6,26,[-0.09443553],99,47,medium,minus,dotcolour,alfa,,,104,22,M,R,
686,56,14,16,5,27,53,549,['n'],1,right,['1'],6,524,[-0.16274944],88,53,easy,minus,dotcolour,alfa,,,104,22,M,R,
687,57,15,16,5,47,33,717,['c'],1,left,['1'],6,51,[0.07842048],96,47,medium,minus,dotcolour,alfa,,,104,22,M,R,
688,58,16,16,5,27,53,450,['c'],0,right,['1'],6,128,[0.00432078],53,53,easy,minus,dotcolour,alfa,,,104,22,M,R,
689,59,17,16,5,36,44,550,['n'],1,right,['2'],5,95,[-0.04288756],78,44,hard,minus,dotcolour,alfa,,,104,22,M,R,
690,60,18,16,5,47,33,450,['n'],0,left,['2'],5,98,[-0.02086441],65,47,medium,minus,dotcolour,alfa,,,104,22,M,R,
691,61,19,16,5,47,33,617,['c'],1,left,['2'],5,7,[0.08146603],100,47,medium,minus,dotcolour,alfa,,,104,22,M,R,
692,62,20,16,5,33,47,600,['n'],1,right,['1'],6,71,[-0.05736927],87,47,medium,minus,dotcolour,alfa,,,104,22,M,R,
693,63,21,16,5,36,44,717,['n'],1,right,['2'],5,41,[-0.04936054],90,44,hard,minus,dotcolour,alfa,,,104,22,M,R,
694,64,22,16,5,53,27,717,['c'],1,left,['1'],6,68,[0.06824044],91,53,easy,minus,dotcolour,alfa,,,104,22,M,R,
695,65,23,16,5,53,27,1367,['c'],1,left,['1'],6,212,[0.12990547],93,53,easy,minus,dotcolour,alfa,,,104,22,M,R,
696,66,24,16,5,27,53,584,['c'],0,right,['1'],6,21,[0.07823397],99,53,easy,minus,dotcolour,alfa,,,104,22,M,R,
697,67,25,16,5,36,44,400,['n'],1,right,['1'],6,70,[-0.03321438],76,44,hard,minus,dotcolour,alfa,,,104,22,M,R,
698,68,26,16,5,53,27,417,['c'],1,left,['2'],5,20,[0.06145271],98,53,easy,minus,dotcolour,alfa,,,104,22,M,R,
699,69,27,16,5,44,36,467,['c'],1,left,['1'],6,26,[0.05238435],95,44,hard,minus,dotcolour,alfa,,,104,22,M,R,
700,70,28,16,5,36,44,317,['c'],0,right,['3'],4,62,[0.09731312],97,44,hard,minus,dotcolour,alfa,,,104,22,M,R,
701,71,29,16,5,33,47,334,['n'],1,right,['2'],5,63,[-0.03813164],80,47,medium,minus,dotcolour,alfa,,,104,22,M,R,
702,72,30,16,5,27,53,317,['n'],1,right,['2'],5,57,[-0.03444807],79,53,easy,minus,dotcolour,alfa,,,104,22,M,R,
703,73,31,16,5,47,33,234,['n'],0,left,['3'],4,71,[-0.09731162],96,47,medium,minus,dotcolour,alfa,,,104,22,M,R,
704,74,32,16,5,53,27,300,['c'],1,left,['1'],6,34,[0.06940022],97,53,easy,minus,dotcolour,alfa,,,104,22,M,R,
705,75,33,16,5,27,53,217,['n'],1,right,['1'],6,42,[-0.08593282],98,53,easy,minus,dotcolour,alfa,,,104,22,M,R,
706,76,34,16,5,33,47,233,['c'],0,right,['2'],5,32,[0.06579843],96,47,medium,minus,dotcolour,alfa,,,104,22,M,R,
707,77,35,16,5,44,36,200,['n'],0,left,['3'],4,95,[-0.06387335],87,44,hard,minus,dotcolour,alfa,,,104,22,M,R,
708,78,36,16,5,53,27,1133,['c'],1,left,['2'],5,143,[0.03216952],68,53,easy,minus,dotcolour,alfa,,,104,22,M,R,
709,79,37,16,5,33,47,584,['n'],1,right,['2'],5,115,[-0.07241766],87,47,medium,minus,dotcolour,alfa,,,104,22,M,R,
710,80,38,16,5,47,33,400,['c'],1,left,['2'],5,32,[0.05608031],94,47,medium,minus,dotcolour,alfa,,,104,22,M,R,
711,81,39,16,5,36,44,250,['n'],1,right,['2'],5,94,[-0.10496347],96,44,hard,minus,dotcolour,alfa,,,104,22,M,R,
712,82,40,16,5,33,47,317,['c'],0,right,['1'],6,71,[0.10081221],97,47,medium,minus,dotcolour,alfa,,,104,22,M,R,
713,83,41,16,5,36,44,215,['c'],0,right,['2'],5,29,[0.08314554],99,44,hard,minus,dotcolour,alfa,,,104,22,M,R,
714,84,0,17,5,27,53,583,['n'],1,right,['3'],4,56,[-0.10694707],98,53,easy,minus,dotcolour,alfa,,,104,22,M,R,
715,85,1,17,5,44,36,333,['n'],0,left,['9'],2,906,[0.0143036],47,44,hard,minus,dotcolour,alfa,,,104,22,M,R,
716,86,2,17,5,47,33,1016,['c'],1,left,['1'],6,62,[0.11235351],98,47,medium,minus,dotcolour,alfa,,,104,22,M,R,
717,87,3,17,5,53,27,550,['c'],1,left,['1'],6,527,[0.26921563],97,53,easy,minus,dotcolour,alfa,,,104,22,M,R,
718,88,4,17,5,47,33,700,['c'],1,left,['1'],6,38,[0.06293069],95,47,medium,minus,dotcolour,alfa,,,104,22,M,R,
719,89,5,17,5,53,27,467,['c'],1,left,['1'],6,28,[0.0741078],98,53,easy,minus,dotcolour,alfa,,,104,22,M,R,
720,90,6,17,5,44,36,850,['c'],1,left,['1'],6,58,[0.08810248],96,44,hard,minus,dotcolour,alfa,,,104,22,M,R,
721,91,7,17,5,27,53,800,['n'],1,right,['2'],5,121,[-0.08156944],89,53,easy,minus,dotcolour,alfa,,,104,22,M,R,
722,92,8,17,5,53,27,833,['c'],1,left,['1'],6,84,[0.11925852],98,53,easy,minus,dotcolour,alfa,,,104,22,M,R,
723,93,9,17,5,44,36,567,['c'],1,left,['1'],6,35,[0.10116641],99,44,hard,minus,dotcolour,alfa,,,104,22,M,R,
724,94,10,17,5,53,27,683,['c'],1,left,['1'],6,64,[0.10501465],98,53,easy,minus,dotcolour,alfa,,,104,22,M,R,
725,95,11,17,5,33,47,534,['n'],1,right,['1'],6,81,[-0.11215854],97,47,medium,minus,dotcolour,alfa,,,104,22,M,R,
726,96,12,17,5,47,33,650,['c'],1,left,['1'],6,45,[0.05976477],93,47,medium,minus,dotcolour,alfa,,,104,22,M,R,
727,97,13,17,5,44,36,734,['n'],0,left,['1'],6,55,[-0.07851943],95,44,hard,minus,dotcolour,alfa,,,104,22,M,R,
728,98,14,17,5,27,53,3283,['n'],1,right,['1'],6,571,[-0.0866785],74,53,easy,minus,dotcolour,alfa,,,104,22,M,R,
729,99,15,17,5,44,36,584,['c'],1,left,['2'],5,22,[0.08199689],99,44,hard,minus,dotcolour,alfa,,,104,22,M,R,
730,100,16,17,5,27,53,517,['n'],1,right,['1'],6,67,[-0.08880642],96,53,easy,minus,dotcolour,alfa,,,104,22,M,R,
731,101,17,17,5,33,47,650,['n'],1,right,['1'],6,423,[-0.11333284],83,47,medium,minus,dotcolour,alfa,,,104,22,M,R,
732,102,18,17,5,36,44,884,['c'],0,right,['1'],6,27,[0.04814023],93,44,hard,minus,dotcolour,alfa,,,104,22,M,R,
733,103,19,17,5,44,36,667,['n'],0,left,['1'],6,81,[-0.05774902],86,44,hard,minus,dotcolour,alfa,,,104,22,M,R,
734,104,20,17,5,27,53,549,['n'],1,right,['1'],6,49,[-0.04122027],84,53,easy,minus,dotcolour,alfa,,,104,22,M,R,
735,105,21,17,5,33,47,567,['n'],1,right,['1'],6,33,[-0.08911324],99,47,medium,minus,dotcolour,alfa,,,104,22,M,R,
736,106,22,17,5,53,27,600,['n'],0,left,['1'],6,137,[-0.06177283],82,53,easy,minus,dotcolour,alfa,,,104,22,M,R,
737,107,23,17,5,33,47,600,['n'],1,right,['1'],6,133,[-0.1246641],96,47,medium,minus,dotcolour,alfa,,,104,22,M,R,
738,108,24,17,5,36,44,833,['c'],0,right,['1'],6,32,[0.06549303],96,44,hard,minus,dotcolour,alfa,,,104,22,M,R,
739,109,25,17,5,36,44,600,['n'],1,right,['1'],6,40,[-0.0618337],94,44,hard,minus,dotcolour,alfa,,,104,22,M,R,
740,110,26,17,5,33,47,516,['c'],0,right,['1'],6,36,[0.06706922],96,47,medium,minus,dotcolour,alfa,,,104,22,M,R,
741,111,27,17,5,27,53,533,['n'],1,right,['1'],6,46,[-0.08135565],97,53,easy,minus,dotcolour,alfa,,,104,22,M,R,
742,112,28,17,5,36,44,767,['c'],0,right,['1'],6,31,[0.03433884],85,44,hard,minus,dotcolour,alfa,,,104,22,M,R,
743,113,29,17,5,36,44,484,['n'],1,right,['1'],6,52,[-0.08804645],97,44,hard,minus,dotcolour,alfa,,,104,22,M,R,
744,114,30,17,5,47,33,600,['c'],1,left,['1'],6,19,[0.0688533],99,47,medium,minus,dotcolour,alfa,,,104,22,M,R,
745,115,31,17,5,36,44,483,['c'],0,right,['1'],6,9,[0.07462264],100,44,hard,minus,dotcolour,alfa,,,104,22,M,R,
746,116,32,17,5,36,44,700,['c'],0,right,['1'],6,13,[0.08542604],100,44,hard,minus,dotcolour,alfa,,,104,22,M,R,
747,117,33,17,5,47,33,1184,['c'],1,left,['1'],6,6,[0.06831039],100,47,medium,minus,dotcolour,alfa,,,104,22,M,R,
748,118,34,17,5,33,47,567,['n'],1,right,['1'],6,65,[-0.03190966],76,47,medium,minus,dotcolour,alfa,,,104,22,M,R,
749,119,35,17,5,27,53,350,['c'],0,right,['1'],6,10,[0.07476327],100,53,easy,minus,dotcolour,alfa,,,104,22,M,R,
750,120,36,17,5,44,36,566,['c'],1,left,['1'],6,516,[0.02088333],57,44,hard,minus,dotcolour,alfa,,,104,22,M,R,
751,121,37,17,5,53,27,833,['c'],1,left,['1'],6,103,[0.0716171],88,53,easy,minus,dotcolour,alfa,,,104,22,M,R,
752,122,38,17,5,47,33,567,['c'],1,left,['1'],6,30,[0.07765127],98,47,medium,minus,dotcolour,alfa,,,104,22,M,R,
753,123,39,17,5,47,33,883,['c'],1,left,['1'],6,490,[-0.00093803],50,47,medium,minus,dotcolour,alfa,,,104,22,M,R,
754,124,40,17,5,33,47,683,['n'],1,right,['2'],5,125,[-0.11455947],95,47,medium,minus,dotcolour,alfa,,,104,22,M,R,
755,125,41,17,5,53,27,1216,['c'],1,left,['2'],5,81,[0.11849676],98,53,easy,minus,dotcolour,alfa,,,104,22,M,R,
,,,,,,,,,,,,,,,,,,,,,1,,104,22,M,R,
,,,,,,,,,,,,,,,,,,,,,2,['d'],104,22,M,R,
,,,,,,,,,,,,,,,,,,,,,3,['g'],104,22,M,R,
,,,,,,,,,,,,,,,,,,,,,5,['5'],104,22,M,R,
