trial,withinphasetrial,withinblocktrial,block,phase,dotsLeft,dotsRight,rt,resp,cor,cresp,conf_press,cj,RTconf,ev,fb,diff,difflevel,condition,task,manip,questionID,questionResp,sub,age,gender,handedness,
0,0,0,0,0,44,36,1999,['n'],0,left,['3'],4,2232,[-0.07651864],56,44,hard,minus,dotcolour,beta,,,13,17,V,R,
1,1,1,0,0,53,27,832,['c'],1,left,['2'],5,1454,[0.3893468],99,53,easy,minus,dotcolour,beta,,,13,17,V,R,
2,2,2,0,0,33,47,567,['n'],1,right,['1'],6,1031,[-0.29196418],99,47,medium,minus,dotcolour,beta,,,13,17,V,R,
3,3,3,0,0,44,36,1016,['c'],1,left,['2'],5,559,[0.01671637],28,44,hard,minus,dotcolour,beta,,,13,17,V,R,
4,4,4,0,0,33,47,1667,['n'],1,right,['3'],4,944,[-0.17767798],91,47,medium,minus,dotcolour,beta,,,13,17,V,R,
5,5,5,0,0,53,27,750,['c'],1,left,['2'],5,573,[0.13650084],87,53,easy,minus,dotcolour,beta,,,13,17,V,R,
6,6,6,0,0,44,36,1348,['c'],1,left,['3'],4,449,[0.09761056],76,44,hard,minus,dotcolour,beta,,,13,17,V,R,
7,7,7,0,0,27,53,848,['n'],1,right,['3'],4,759,[-0.13080924],83,53,easy,minus,dotcolour,beta,,,13,17,V,R,
8,8,8,0,0,36,44,1515,['n'],1,right,['3'],4,381,[-0.09442701],76,44,hard,minus,dotcolour,beta,,,13,17,V,R,
9,9,9,0,0,36,44,849,['n'],1,right,['3'],4,454,[-0.0788255],65,44,hard,minus,dotcolour,beta,,,13,17,V,R,
10,10,10,0,0,27,53,782,['n'],1,right,['3'],4,662,[-0.05995275],52,53,easy,minus,dotcolour,beta,,,13,17,V,R,
11,11,11,0,0,27,53,2066,['n'],1,right,['8'],3,643,[-0.21458367],97,53,easy,minus,dotcolour,beta,,,13,17,V,R,
12,12,12,0,0,27,53,982,['n'],1,right,['3'],4,371,[-0.1454336],93,53,easy,minus,dotcolour,beta,,,13,17,V,R,
13,13,13,0,0,44,36,782,['c'],1,left,['3'],4,374,[0.18538553],98,44,hard,minus,dotcolour,beta,,,13,17,V,R,
14,14,14,0,0,47,33,1232,['c'],1,left,['3'],4,823,[0.21326102],96,47,medium,minus,dotcolour,beta,,,13,17,V,R,
15,15,15,0,0,44,36,1199,['c'],1,left,['2'],5,600,[0.2214153],98,44,hard,minus,dotcolour,beta,,,13,17,V,R,
16,16,16,0,0,27,53,883,['n'],1,right,['2'],5,910,[-0.13959221],83,53,easy,minus,dotcolour,beta,,,13,17,V,R,
17,17,17,0,0,53,27,1564,['c'],1,left,['2'],5,637,[0.19349256],96,53,easy,minus,dotcolour,beta,,,13,17,V,R,
18,18,18,0,0,44,36,999,['n'],0,left,['8'],3,1092,[-0.04083138],44,44,hard,minus,dotcolour,beta,,,13,17,V,R,
19,19,19,0,0,33,47,1665,['c'],0,right,['3'],4,311,[-0.0181893],8,47,medium,minus,dotcolour,beta,,,13,17,V,R,
20,20,20,0,0,47,33,1282,['c'],1,left,['3'],4,417,[0.15400409],94,47,medium,minus,dotcolour,beta,,,13,17,V,R,
21,21,21,0,0,36,44,1547,['c'],0,right,['3'],4,317,[0.02785958],29,44,hard,minus,dotcolour,beta,,,13,17,V,R,
22,22,22,0,0,27,53,783,['n'],1,right,['2'],5,802,[-0.14060318],85,53,easy,minus,dotcolour,beta,,,13,17,V,R,
23,23,23,0,0,53,27,983,['c'],1,left,['2'],5,1132,[0.31142178],99,53,easy,minus,dotcolour,beta,,,13,17,V,R,
24,24,24,0,0,44,36,1116,['c'],1,left,['2'],5,603,[0.04107712],42,44,hard,minus,dotcolour,beta,,,13,17,V,R,
25,25,25,0,0,33,47,2466,['n'],1,right,['8'],3,939,[-0.13328083],81,47,medium,minus,dotcolour,beta,,,13,17,V,R,
26,26,26,0,0,47,33,1149,['c'],1,left,['3'],4,553,[0.33573494],100,47,medium,minus,dotcolour,beta,,,13,17,V,R,
27,27,27,0,0,53,27,833,['c'],1,left,['2'],5,515,[0.09702268],74,53,easy,minus,dotcolour,beta,,,13,17,V,R,
28,28,28,0,0,33,47,1549,['c'],0,right,['3'],4,369,[0.0753636],64,47,medium,minus,dotcolour,beta,,,13,17,V,R,
29,29,29,0,0,53,27,931,['c'],1,left,['2'],5,455,[0.06721408],58,53,easy,minus,dotcolour,beta,,,13,17,V,R,
30,30,30,0,0,47,33,1199,['c'],1,left,['3'],4,294,[0.07845273],68,47,medium,minus,dotcolour,beta,,,13,17,V,R,
31,31,31,0,0,33,47,848,['n'],1,right,['8'],3,682,[-0.15242802],89,47,medium,minus,dotcolour,beta,,,13,17,V,R,
32,32,32,0,0,33,47,1248,['n'],1,right,['8'],3,319,[-0.08011566],69,47,medium,minus,dotcolour,beta,,,13,17,V,R,
33,33,33,0,0,47,33,849,['c'],1,left,['2'],5,682,[0.32303454],100,47,medium,minus,dotcolour,beta,,,13,17,V,R,
34,34,34,0,0,36,44,2198,['n'],1,right,['9'],2,1209,[-0.09275582],65,44,hard,minus,dotcolour,beta,,,13,17,V,R,
35,35,35,0,0,47,33,1034,['c'],1,left,['2'],5,696,[0.0928883],69,47,medium,minus,dotcolour,beta,,,13,17,V,R,
36,36,36,0,0,27,53,833,['n'],1,right,['2'],5,724,[-0.17442686],93,53,easy,minus,dotcolour,beta,,,13,17,V,R,
37,37,37,0,0,36,44,1750,['c'],0,right,['8'],3,779,[0.03419886],39,44,hard,minus,dotcolour,beta,,,13,17,V,R,
38,38,38,0,0,36,44,816,['n'],1,right,['2'],5,1365,[-0.26833933],96,44,hard,minus,dotcolour,beta,,,13,17,V,R,
39,39,39,0,0,53,27,916,['c'],1,left,['1'],6,442,[0.15301513],93,53,easy,minus,dotcolour,beta,,,13,17,V,R,
40,40,40,0,0,47,33,2849,['c'],1,left,['8'],3,561,[0.09120422],70,47,medium,minus,dotcolour,beta,,,13,17,V,R,
41,41,41,0,0,36,44,1082,['c'],0,right,['2'],5,264,[0.06438885],58,44,hard,minus,dotcolour,beta,,,13,17,V,R,
42,42,0,1,0,36,44,1017,['c'],0,right,['2'],5,485,[0.0678467],58,44,hard,minus,dotcolour,beta,,,13,17,V,R,
43,43,1,1,0,53,27,667,['c'],1,left,['1'],6,408,[0.06687162],58,53,easy,minus,dotcolour,beta,,,13,17,V,R,
44,44,2,1,0,36,44,982,['c'],0,right,['2'],5,322,[-0.01881752],9,44,hard,minus,dotcolour,beta,,,13,17,V,R,
45,45,3,1,0,53,27,700,['c'],1,left,['1'],6,659,[0.14291842],87,53,easy,minus,dotcolour,beta,,,13,17,V,R,
46,46,4,1,0,53,27,1034,['c'],1,left,['2'],5,224,[0.20896385],100,53,easy,minus,dotcolour,beta,,,13,17,V,R,
47,47,5,1,0,27,53,666,['n'],1,right,['1'],6,566,[-0.31939103],100,53,easy,minus,dotcolour,beta,,,13,17,V,R,
48,48,6,1,0,36,44,1367,['c'],0,right,['3'],4,442,[-0.04653184],6,44,hard,minus,dotcolour,beta,,,13,17,V,R,
49,49,7,1,0,27,53,816,['c'],0,right,['0'],1,2233,[-0.26342763],2,53,easy,minus,dotcolour,beta,,,13,17,V,R,
50,50,8,1,0,33,47,1666,['n'],1,right,['8'],3,686,[-0.02130933],32,47,medium,minus,dotcolour,beta,,,13,17,V,R,
51,51,9,1,0,33,47,684,['n'],1,right,['2'],5,321,[-0.1071204],84,47,medium,minus,dotcolour,beta,,,13,17,V,R,
52,52,10,1,0,47,33,984,['c'],1,left,['1'],6,1263,[0.37985855],99,47,medium,minus,dotcolour,beta,,,13,17,V,R,
53,53,11,1,0,53,27,667,['c'],1,left,['1'],6,275,[0.09881249],82,53,easy,minus,dotcolour,beta,,,13,17,V,R,
54,54,12,1,0,44,36,2450,['c'],1,left,['8'],3,480,[0.03488886],37,44,hard,minus,dotcolour,beta,,,13,17,V,R,
55,55,13,1,0,47,33,2101,['n'],0,left,['3'],4,434,[-0.01193074],23,47,medium,minus,dotcolour,beta,,,13,17,V,R,
56,56,14,1,0,44,36,1033,['c'],1,left,['2'],5,537,[0.13018584],86,44,hard,minus,dotcolour,beta,,,13,17,V,R,
57,57,15,1,0,47,33,716,['c'],1,left,['2'],5,321,[0.15842897],96,47,medium,minus,dotcolour,beta,,,13,17,V,R,
58,58,16,1,0,33,47,800,['n'],1,right,['1'],6,373,[-0.13958383],92,47,medium,minus,dotcolour,beta,,,13,17,V,R,
59,59,17,1,0,47,33,783,['c'],1,left,['1'],6,360,[0.25860804],100,47,medium,minus,dotcolour,beta,,,13,17,V,R,
60,60,18,1,0,53,27,583,['c'],1,left,['1'],6,260,[0.17999477],99,53,easy,minus,dotcolour,beta,,,13,17,V,R,
61,61,19,1,0,44,36,1167,['c'],1,left,['2'],5,276,[0.09234041],78,44,hard,minus,dotcolour,beta,,,13,17,V,R,
62,62,20,1,0,27,53,616,['n'],1,right,['1'],6,178,[-0.02164945],19,53,easy,minus,dotcolour,beta,,,13,17,V,R,
63,63,21,1,0,53,27,767,['c'],1,left,['1'],6,126,[0.11837104],96,53,easy,minus,dotcolour,beta,,,13,17,V,R,
64,64,22,1,0,53,27,833,['c'],1,left,['2'],5,513,[0.1626125],94,53,easy,minus,dotcolour,beta,,,13,17,V,R,
65,65,23,1,0,47,33,917,['c'],1,left,['3'],4,369,[0.12068236],87,47,medium,minus,dotcolour,beta,,,13,17,V,R,
66,66,24,1,0,33,47,717,['n'],1,right,['2'],5,335,[-0.17279951],97,47,medium,minus,dotcolour,beta,,,13,17,V,R,
67,67,25,1,0,33,47,1301,['n'],1,right,['2'],5,280,[-0.07164661],63,47,medium,minus,dotcolour,beta,,,13,17,V,R,
68,68,26,1,0,44,36,684,['c'],1,left,['1'],6,179,[0.02218237],19,44,hard,minus,dotcolour,beta,,,13,17,V,R,
69,69,27,1,0,44,36,1034,['n'],0,left,['8'],3,892,[-0.16650051],89,44,hard,minus,dotcolour,beta,,,13,17,V,R,
70,70,28,1,0,33,47,1267,['n'],1,right,['2'],5,271,[-0.13772659],94,47,medium,minus,dotcolour,beta,,,13,17,V,R,
71,71,29,1,0,44,36,750,['c'],1,left,['2'],5,280,[0.05939646],53,44,hard,minus,dotcolour,beta,,,13,17,V,R,
72,72,30,1,0,36,44,1034,['c'],0,right,['2'],5,357,[0.05078538],46,44,hard,minus,dotcolour,beta,,,13,17,V,R,
73,73,31,1,0,27,53,733,['n'],1,right,['2'],5,290,[-0.11498088],88,53,easy,minus,dotcolour,beta,,,13,17,V,R,
74,74,32,1,0,33,47,933,['n'],1,right,['2'],5,955,[-0.08533299],63,47,medium,minus,dotcolour,beta,,,13,17,V,R,
75,75,33,1,0,27,53,1000,['n'],1,right,['3'],4,1166,[-0.17708402],88,53,easy,minus,dotcolour,beta,,,13,17,V,R,
76,76,34,1,0,36,44,1034,['c'],0,right,['2'],5,336,[0.10864307],84,44,hard,minus,dotcolour,beta,,,13,17,V,R,
77,77,35,1,0,36,44,2100,['c'],0,right,['3'],4,232,[0.08302656],74,44,hard,minus,dotcolour,beta,,,13,17,V,R,
78,78,36,1,0,47,33,650,['c'],1,left,['2'],5,278,[0.12170092],91,47,medium,minus,dotcolour,beta,,,13,17,V,R,
79,79,37,1,0,44,36,984,['c'],1,left,['1'],6,398,[0.13123974],90,44,hard,minus,dotcolour,beta,,,13,17,V,R,
80,80,38,1,0,36,44,1100,['n'],1,right,['8'],3,1267,[-0.22502745],94,44,hard,minus,dotcolour,beta,,,13,17,V,R,
81,81,39,1,0,27,53,717,['n'],1,right,['3'],4,509,[-0.05208503],48,53,easy,minus,dotcolour,beta,,,13,17,V,R,
82,82,40,1,0,27,53,866,['n'],1,right,['2'],5,335,[-0.1136819],86,53,easy,minus,dotcolour,beta,,,13,17,V,R,
83,83,41,1,0,47,33,749,['c'],1,left,['2'],5,614,[0.12691719],84,47,medium,minus,dotcolour,beta,,,13,17,V,R,
84,84,0,2,0,36,44,1165,['c'],0,right,['2'],5,770,[-0.08057785],6,44,hard,minus,dotcolour,beta,,,13,17,V,R,
85,85,1,2,0,27,53,600,['n'],1,right,['1'],6,453,[-0.09242179],73,53,easy,minus,dotcolour,beta,,,13,17,V,R,
86,86,2,2,0,53,27,667,['c'],1,left,['2'],5,1361,[0.36552045],99,53,easy,minus,dotcolour,beta,,,13,17,V,R,
87,87,3,2,0,36,44,1016,['n'],1,right,['3'],4,739,[-0.1042251],73,44,hard,minus,dotcolour,beta,,,13,17,V,R,
88,88,4,2,0,33,47,882,['c'],0,right,['2'],5,307,[0.10689758],84,47,medium,minus,dotcolour,beta,,,13,17,V,R,
89,89,5,2,0,47,33,633,['c'],1,left,['3'],4,342,[0.14666341],94,47,medium,minus,dotcolour,beta,,,13,17,V,R,
90,90,6,2,0,33,47,615,['n'],1,right,['1'],6,890,[-0.25476905],98,47,medium,minus,dotcolour,beta,,,13,17,V,R,
91,91,7,2,0,47,33,899,['c'],1,left,['2'],5,260,[0.15902669],97,47,medium,minus,dotcolour,beta,,,13,17,V,R,
92,92,8,2,0,44,36,914,['c'],1,left,['2'],5,342,[0.11458315],86,44,hard,minus,dotcolour,beta,,,13,17,V,R,
93,93,9,2,0,33,47,1282,['c'],0,right,['3'],4,462,[0.02784927],32,47,medium,minus,dotcolour,beta,,,13,17,V,R,
94,94,10,2,0,47,33,1182,['c'],1,left,['2'],5,310,[0.06961252],61,47,medium,minus,dotcolour,beta,,,13,17,V,R,
95,95,11,2,0,33,47,633,['n'],1,right,['8'],3,650,[-0.29587349],100,47,medium,minus,dotcolour,beta,,,13,17,V,R,
96,96,12,2,0,53,27,682,['c'],1,left,['2'],5,790,[0.06007711],52,53,easy,minus,dotcolour,beta,,,13,17,V,R,
97,97,13,2,0,36,44,865,['c'],0,right,['2'],5,252,[0.10608556],86,44,hard,minus,dotcolour,beta,,,13,17,V,R,
98,98,14,2,0,44,36,1899,['n'],0,left,['8'],3,608,[-0.06656207],56,44,hard,minus,dotcolour,beta,,,13,17,V,R,
99,99,15,2,0,53,27,649,['c'],1,left,['2'],5,303,[0.22835442],100,53,easy,minus,dotcolour,beta,,,13,17,V,R,
100,100,16,2,0,36,44,1149,['n'],1,right,['2'],5,1567,[-0.15102692],80,44,hard,minus,dotcolour,beta,,,13,17,V,R,
101,101,17,2,0,53,27,666,['c'],1,left,['3'],4,246,[0.06370028],57,53,easy,minus,dotcolour,beta,,,13,17,V,R,
102,102,18,2,0,44,36,932,['c'],1,left,['2'],5,569,[0.06107193],53,44,hard,minus,dotcolour,beta,,,13,17,V,R,
103,103,19,2,0,27,53,932,['n'],1,right,['1'],6,686,[-0.21688412],97,53,easy,minus,dotcolour,beta,,,13,17,V,R,
104,104,20,2,0,53,27,617,['c'],1,left,['1'],6,235,[0.05658513],51,53,easy,minus,dotcolour,beta,,,13,17,V,R,
105,105,21,2,0,27,53,817,['n'],1,right,['2'],5,387,[-0.20902198],99,53,easy,minus,dotcolour,beta,,,13,17,V,R,
106,106,22,2,0,33,47,1167,['c'],0,right,['3'],4,375,[0.0659615],58,47,medium,minus,dotcolour,beta,,,13,17,V,R,
107,107,23,2,0,36,44,1264,['c'],0,right,['2'],5,294,[0.07629924],67,44,hard,minus,dotcolour,beta,,,13,17,V,R,
108,108,24,2,0,27,53,1115,['n'],1,right,['3'],4,287,[-0.09599826],80,53,easy,minus,dotcolour,beta,,,13,17,V,R,
109,109,25,2,0,44,36,847,['c'],1,left,['2'],5,187,[0.12745042],95,44,hard,minus,dotcolour,beta,,,13,17,V,R,
110,110,26,2,0,53,27,1365,['c'],1,left,['1'],6,919,[0.39365006],100,53,easy,minus,dotcolour,beta,,,13,17,V,R,
111,111,27,2,0,27,53,800,['n'],1,right,['1'],6,371,[-0.13251837],91,53,easy,minus,dotcolour,beta,,,13,17,V,R,
112,112,28,2,0,36,44,1132,['c'],0,right,['3'],4,1089,[0.01587737],34,44,hard,minus,dotcolour,beta,,,13,17,V,R,
113,113,29,2,0,47,33,914,['c'],1,left,['2'],5,218,[0.17081039],99,47,medium,minus,dotcolour,beta,,,13,17,V,R,
114,114,30,2,0,47,33,748,['c'],1,left,['2'],5,181,[0.07759086],72,47,medium,minus,dotcolour,beta,,,13,17,V,R,
115,115,31,2,0,33,47,916,['n'],1,right,['3'],4,763,[-0.35752705],100,47,medium,minus,dotcolour,beta,,,13,17,V,R,
116,116,32,2,0,44,36,765,['c'],1,left,['1'],6,1007,[0.3184515],99,44,hard,minus,dotcolour,beta,,,13,17,V,R,
117,117,33,2,0,27,53,849,['n'],1,right,['2'],5,278,[-0.06179673],55,53,easy,minus,dotcolour,beta,,,13,17,V,R,
118,118,34,2,0,44,36,682,['c'],1,left,['1'],6,337,[0.19067031],99,44,hard,minus,dotcolour,beta,,,13,17,V,R,
119,119,35,2,0,53,27,715,['c'],1,left,['1'],6,209,[0.1283586],95,53,easy,minus,dotcolour,beta,,,13,17,V,R,
120,120,36,2,0,44,36,732,['c'],1,left,['1'],6,420,[0.24787632],100,44,hard,minus,dotcolour,beta,,,13,17,V,R,
121,121,37,2,0,27,53,515,['n'],1,right,['1'],6,225,[-0.12942723],94,53,easy,minus,dotcolour,beta,,,13,17,V,R,
122,122,38,2,0,47,33,882,['c'],1,left,['1'],6,237,[0.14838658],97,47,medium,minus,dotcolour,beta,,,13,17,V,R,
123,123,39,2,0,36,44,950,['n'],1,right,['2'],5,431,[-0.15885301],94,44,hard,minus,dotcolour,beta,,,13,17,V,R,
124,124,40,2,0,33,47,898,['c'],0,right,['2'],5,1100,[-0.10392143],6,47,medium,minus,dotcolour,beta,,,13,17,V,R,
125,125,41,2,0,47,33,765,['c'],1,left,['1'],6,314,[0.00735403],18,47,medium,minus,dotcolour,beta,,,13,17,V,R,
126,0,0,3,1,36,44,883,['c'],0,right,['1'],6,133,[0.0940895],100,44,hard,plus,dotcolour,beta,,,13,17,V,R,
127,1,1,3,1,36,44,699,['n'],1,right,['2'],5,318,[-0.0317565],94,44,hard,plus,dotcolour,beta,,,13,17,V,R,
128,2,2,3,1,44,36,599,['c'],1,left,['1'],6,234,[0.17501496],100,44,hard,plus,dotcolour,beta,,,13,17,V,R,
129,3,3,3,1,47,33,1365,['c'],1,left,['3'],4,1252,[0.17081616],97,47,medium,plus,dotcolour,beta,,,13,17,V,R,
130,4,4,3,1,44,36,783,['c'],1,left,['1'],6,348,[0.09804954],99,44,hard,plus,dotcolour,beta,,,13,17,V,R,
131,5,5,3,1,47,33,699,['c'],1,left,['2'],5,388,[0.1876672],100,47,medium,plus,dotcolour,beta,,,13,17,V,R,
132,6,6,3,1,44,36,1565,['n'],0,left,['8'],3,503,[0.00085155],80,44,hard,plus,dotcolour,beta,,,13,17,V,R,
133,7,7,3,1,53,27,664,['c'],1,left,['2'],5,250,[0.08295915],99,53,easy,plus,dotcolour,beta,,,13,17,V,R,
134,8,8,3,1,33,47,1016,['n'],1,right,['3'],4,233,[-0.14618495],100,47,medium,plus,dotcolour,beta,,,13,17,V,R,
135,9,9,3,1,27,53,1883,['c'],0,right,['9'],2,918,[-0.18752309],8,53,easy,plus,dotcolour,beta,,,13,17,V,R,
136,10,10,3,1,47,33,698,['c'],1,left,['3'],4,1207,[0.47710637],100,47,medium,plus,dotcolour,beta,,,13,17,V,R,
137,11,11,3,1,27,53,1298,['c'],0,right,['2'],5,1084,[0.03043525],82,53,easy,plus,dotcolour,beta,,,13,17,V,R,
138,12,12,3,1,47,33,765,['c'],1,left,['3'],4,691,[0.22628862],100,47,medium,plus,dotcolour,beta,,,13,17,V,R,
139,13,13,3,1,53,27,615,['c'],1,left,['1'],6,296,[0.08658771],99,53,easy,plus,dotcolour,beta,,,13,17,V,R,
140,14,14,3,1,44,36,665,['c'],1,left,['1'],6,243,[0.0665397],99,44,hard,plus,dotcolour,beta,,,13,17,V,R,
141,15,15,3,1,33,47,1497,['n'],1,right,['9'],2,1063,[-0.14260048],97,47,medium,plus,dotcolour,beta,,,13,17,V,R,
142,16,16,3,1,53,27,648,['c'],1,left,['1'],6,396,[0.17393662],100,53,easy,plus,dotcolour,beta,,,13,17,V,R,
143,17,17,3,1,27,53,1015,['n'],1,right,['9'],2,2133,[-0.49900497],100,53,easy,plus,dotcolour,beta,,,13,17,V,R,
144,18,18,3,1,27,53,799,['n'],1,right,['8'],3,713,[-0.13712162],98,53,easy,plus,dotcolour,beta,,,13,17,V,R,
145,19,19,3,1,47,33,682,['c'],1,left,['2'],5,459,[0.08462579],98,47,medium,plus,dotcolour,beta,,,13,17,V,R,
146,20,20,3,1,53,27,567,['c'],1,left,['2'],5,2667,[0.25623868],97,53,easy,plus,dotcolour,beta,,,13,17,V,R,
147,21,21,3,1,44,36,533,['c'],1,left,['2'],5,235,[0.06779736],99,44,hard,plus,dotcolour,beta,,,13,17,V,R,
148,22,22,3,1,53,27,549,['c'],1,left,['1'],6,190,[0.10049539],100,53,easy,plus,dotcolour,beta,,,13,17,V,R,
149,23,23,3,1,33,47,682,['n'],1,right,['8'],3,1748,[-0.18532372],96,47,medium,plus,dotcolour,beta,,,13,17,V,R,
150,24,24,3,1,47,33,765,['c'],1,left,['2'],5,361,[0.10270412],99,47,medium,plus,dotcolour,beta,,,13,17,V,R,
151,25,25,3,1,33,47,1182,['n'],1,right,['9'],2,1500,[-0.26120502],99,47,medium,plus,dotcolour,beta,,,13,17,V,R,
152,26,26,3,1,53,27,650,['c'],1,left,['2'],5,272,[0.0161587],92,53,easy,plus,dotcolour,beta,,,13,17,V,R,
153,27,27,3,1,36,44,798,['n'],1,right,['0'],1,1342,[-0.20088723],98,44,hard,plus,dotcolour,beta,,,13,17,V,R,
154,28,28,3,1,27,53,649,['n'],1,right,['1'],6,440,[-0.14424705],100,53,easy,plus,dotcolour,beta,,,13,17,V,R,
155,29,29,3,1,36,44,964,['c'],0,right,['2'],5,345,[0.11874931],100,44,hard,plus,dotcolour,beta,,,13,17,V,R,
156,30,30,3,1,53,27,700,['c'],1,left,['3'],4,720,[0.08283192],95,53,easy,plus,dotcolour,beta,,,13,17,V,R,
157,31,31,3,1,27,53,717,['n'],1,right,['8'],3,1816,[-0.4300596],100,53,easy,plus,dotcolour,beta,,,13,17,V,R,
158,32,32,3,1,36,44,998,['c'],0,right,['9'],2,1681,[0.117591],92,44,hard,plus,dotcolour,beta,,,13,17,V,R,
159,33,33,3,1,33,47,714,['c'],0,right,['3'],4,1650,[-0.05636427],50,47,medium,plus,dotcolour,beta,,,13,17,V,R,
160,34,34,3,1,27,53,849,['n'],1,right,['2'],5,423,[-0.21265817],100,53,easy,plus,dotcolour,beta,,,13,17,V,R,
161,35,35,3,1,36,44,566,['n'],1,right,['3'],4,256,[-0.14074052],100,44,hard,plus,dotcolour,beta,,,13,17,V,R,
162,36,36,3,1,33,47,1299,['n'],1,right,['9'],2,548,[-0.16274756],100,47,medium,plus,dotcolour,beta,,,13,17,V,R,
163,37,37,3,1,44,36,814,['c'],1,left,['2'],5,607,[-0.08325923],35,44,hard,plus,dotcolour,beta,,,13,17,V,R,
164,38,38,3,1,44,36,698,['c'],1,left,['3'],4,612,[0.07582617],95,44,hard,plus,dotcolour,beta,,,13,17,V,R,
165,39,39,3,1,47,33,649,['c'],1,left,['2'],5,475,[0.22596803],100,47,medium,plus,dotcolour,beta,,,13,17,V,R,
166,40,40,3,1,33,47,915,['c'],0,right,['2'],5,325,[-0.01100058],80,47,medium,plus,dotcolour,beta,,,13,17,V,R,
167,41,41,3,1,36,44,1033,['n'],1,right,['0'],1,1704,[-0.26710933],99,44,hard,plus,dotcolour,beta,,,13,17,V,R,
168,42,0,4,1,33,47,1716,['n'],1,right,['9'],2,436,[-0.14244397],100,47,medium,plus,dotcolour,beta,,,13,17,V,R,
169,43,1,4,1,47,33,667,['c'],1,left,['2'],5,554,[0.17501255],100,47,medium,plus,dotcolour,beta,,,13,17,V,R,
170,44,2,4,1,53,27,565,['c'],1,left,['3'],4,463,[0.08976979],98,53,easy,plus,dotcolour,beta,,,13,17,V,R,
171,45,3,4,1,44,36,799,['c'],1,left,['2'],5,294,[0.2119158],100,44,hard,plus,dotcolour,beta,,,13,17,V,R,
172,46,4,4,1,33,47,765,['n'],1,right,['3'],4,1149,[-0.28765609],100,47,medium,plus,dotcolour,beta,,,13,17,V,R,
173,47,5,4,1,44,36,716,['c'],1,left,['3'],4,340,[-0.01237407],79,44,hard,plus,dotcolour,beta,,,13,17,V,R,
174,48,6,4,1,36,44,1298,['n'],1,right,['8'],3,331,[-0.00667158],88,44,hard,plus,dotcolour,beta,,,13,17,V,R,
175,49,7,4,1,36,44,2599,['c'],0,right,['3'],4,1008,[-0.02590829],63,44,hard,plus,dotcolour,beta,,,13,17,V,R,
176,50,8,4,1,36,44,683,['n'],1,right,['8'],3,1006,[-0.09389692],94,44,hard,plus,dotcolour,beta,,,13,17,V,R,
177,51,9,4,1,53,27,866,['c'],1,left,['2'],5,236,[0.02934894],96,53,easy,plus,dotcolour,beta,,,13,17,V,R,
178,52,10,4,1,47,33,883,['c'],1,left,['8'],3,1986,[0.38314092],100,47,medium,plus,dotcolour,beta,,,13,17,V,R,
179,53,11,4,1,36,44,900,['n'],1,right,['3'],4,1095,[-0.21249642],99,44,hard,plus,dotcolour,beta,,,13,17,V,R,
180,54,12,4,1,27,53,748,['c'],0,right,['0'],1,1319,[-0.13780184],22,53,easy,plus,dotcolour,beta,,,13,17,V,R,
181,55,13,4,1,27,53,767,['n'],1,right,['2'],5,1485,[-0.22403418],98,53,easy,plus,dotcolour,beta,,,13,17,V,R,
182,56,14,4,1,44,36,1066,['n'],0,left,['3'],4,896,[0.11017605],26,44,hard,plus,dotcolour,beta,,,13,17,V,R,
183,57,15,4,1,36,44,1300,['c'],0,right,['3'],4,826,[0.05409677],90,44,hard,plus,dotcolour,beta,,,13,17,V,R,
184,58,16,4,1,47,33,1032,['c'],1,left,['3'],4,1369,[0.24957654],99,47,medium,plus,dotcolour,beta,,,13,17,V,R,
185,59,17,4,1,27,53,766,['n'],1,right,['2'],5,589,[-0.22918075],100,53,easy,plus,dotcolour,beta,,,13,17,V,R,
186,60,18,4,1,44,36,783,['c'],1,left,['3'],4,655,[0.15250321],99,44,hard,plus,dotcolour,beta,,,13,17,V,R,
187,61,19,4,1,27,53,664,['n'],1,right,['2'],5,907,[-0.05456574],89,53,easy,plus,dotcolour,beta,,,13,17,V,R,
188,62,20,4,1,44,36,781,['c'],1,left,['3'],4,401,[0.14282618],100,44,hard,plus,dotcolour,beta,,,13,17,V,R,
189,63,21,4,1,27,53,680,['n'],1,right,['3'],4,2463,[-0.39987899],99,53,easy,plus,dotcolour,beta,,,13,17,V,R,
190,64,22,4,1,27,53,699,['n'],1,right,['2'],5,914,[-0.46488266],100,53,easy,plus,dotcolour,beta,,,13,17,V,R,
191,65,23,4,1,36,44,832,['c'],0,right,['8'],3,1174,[0.05640938],87,44,hard,plus,dotcolour,beta,,,13,17,V,R,
192,66,24,4,1,27,53,750,['n'],1,right,['2'],5,586,[-0.11469775],98,53,easy,plus,dotcolour,beta,,,13,17,V,R,
193,67,25,4,1,53,27,666,['c'],1,left,['2'],5,393,[-0.00176496],82,53,easy,plus,dotcolour,beta,,,13,17,V,R,
194,68,26,4,1,33,47,1133,['c'],0,right,['3'],4,453,[-0.05452509],51,47,medium,plus,dotcolour,beta,,,13,17,V,R,
195,69,27,4,1,44,36,1316,['c'],1,left,['3'],4,2064,[0.00042068],67,44,hard,plus,dotcolour,beta,,,13,17,V,R,
196,70,28,4,1,53,27,2015,['c'],1,left,['3'],4,718,[0.12865715],98,53,easy,plus,dotcolour,beta,,,13,17,V,R,
197,71,29,4,1,47,33,848,['c'],1,left,['2'],5,337,[0.04758556],96,47,medium,plus,dotcolour,beta,,,13,17,V,R,
198,72,30,4,1,47,33,898,['c'],1,left,['8'],3,457,[0.06004927],96,47,medium,plus,dotcolour,beta,,,13,17,V,R,
199,73,31,4,1,53,27,665,['c'],1,left,['2'],5,325,[0.08989432],99,53,easy,plus,dotcolour,beta,,,13,17,V,R,
200,74,32,4,1,47,33,599,['c'],1,left,['3'],4,298,[0.15793748],100,47,medium,plus,dotcolour,beta,,,13,17,V,R,
201,75,33,4,1,33,47,1365,['n'],1,right,['9'],2,1305,[-0.28490953],100,47,medium,plus,dotcolour,beta,,,13,17,V,R,
202,76,34,4,1,44,36,732,['c'],1,left,['3'],4,737,[0.17984295],99,44,hard,plus,dotcolour,beta,,,13,17,V,R,
203,77,35,4,1,47,33,1150,['c'],1,left,['2'],5,526,[0.17719959],100,47,medium,plus,dotcolour,beta,,,13,17,V,R,
204,78,36,4,1,36,44,1615,['c'],0,right,['3'],4,274,[0.03725886],96,44,hard,plus,dotcolour,beta,,,13,17,V,R,
205,79,37,4,1,33,47,732,['n'],1,right,['2'],5,379,[-0.11940548],99,47,medium,plus,dotcolour,beta,,,13,17,V,R,
206,80,38,4,1,53,27,650,['c'],1,left,['2'],5,523,[0.13758563],99,53,easy,plus,dotcolour,beta,,,13,17,V,R,
207,81,39,4,1,33,47,732,['n'],1,right,['3'],4,482,[-0.11405485],99,47,medium,plus,dotcolour,beta,,,13,17,V,R,
208,82,40,4,1,33,47,748,['n'],1,right,['9'],2,1746,[-0.44680593],100,47,medium,plus,dotcolour,beta,,,13,17,V,R,
209,83,41,4,1,53,27,665,['c'],1,left,['3'],4,835,[0.13711093],98,53,easy,plus,dotcolour,beta,,,13,17,V,R,
210,84,0,5,1,44,36,899,['c'],1,left,['2'],5,509,[0.12835313],99,44,hard,plus,dotcolour,beta,,,13,17,V,R,
211,85,1,5,1,53,27,597,['c'],1,left,['3'],4,234,[0.13211052],100,53,easy,plus,dotcolour,beta,,,13,17,V,R,
212,86,2,5,1,44,36,715,['c'],1,left,['3'],4,309,[0.07370415],99,44,hard,plus,dotcolour,beta,,,13,17,V,R,
213,87,3,5,1,33,47,1333,['n'],1,right,['8'],3,2301,[-0.22545179],97,47,medium,plus,dotcolour,beta,,,13,17,V,R,
214,88,4,5,1,33,47,848,['n'],1,right,['3'],4,1008,[-0.14161475],97,47,medium,plus,dotcolour,beta,,,13,17,V,R,
215,89,5,5,1,36,44,865,['n'],1,right,['8'],3,982,[-0.19049003],99,44,hard,plus,dotcolour,beta,,,13,17,V,R,
216,90,6,5,1,27,53,700,['n'],1,right,['3'],4,956,[-0.31191734],100,53,easy,plus,dotcolour,beta,,,13,17,V,R,
217,91,7,5,1,47,33,782,['c'],1,left,['2'],5,319,[0.09734036],99,47,medium,plus,dotcolour,beta,,,13,17,V,R,
218,92,8,5,1,33,47,1130,['n'],1,right,['3'],4,3008,[-0.22693006],95,47,medium,plus,dotcolour,beta,,,13,17,V,R,
219,93,9,5,1,47,33,1132,['c'],1,left,['2'],5,531,[0.06548288],95,47,medium,plus,dotcolour,beta,,,13,17,V,R,
220,94,10,5,1,36,44,700,['n'],1,right,['8'],3,987,[-0.05716521],89,44,hard,plus,dotcolour,beta,,,13,17,V,R,
221,95,11,5,1,36,44,766,['c'],0,right,['2'],5,254,[0.09448478],100,44,hard,plus,dotcolour,beta,,,13,17,V,R,
222,96,12,5,1,44,36,766,['c'],1,left,['3'],4,455,[0.04099741],93,44,hard,plus,dotcolour,beta,,,13,17,V,R,
223,97,13,5,1,27,53,782,['n'],1,right,['2'],5,823,[-0.18405227],99,53,easy,plus,dotcolour,beta,,,13,17,V,R,
224,98,14,5,1,27,53,866,['n'],1,right,['3'],4,565,[-0.17533704],100,53,easy,plus,dotcolour,beta,,,13,17,V,R,
225,99,15,5,1,47,33,783,['c'],1,left,['2'],5,288,[0.11639733],100,47,medium,plus,dotcolour,beta,,,13,17,V,R,
226,100,16,5,1,44,36,1050,['c'],1,left,['3'],4,348,[0.13701336],100,44,hard,plus,dotcolour,beta,,,13,17,V,R,
227,101,17,5,1,47,33,897,['c'],1,left,['2'],5,315,[0.12555816],100,47,medium,plus,dotcolour,beta,,,13,17,V,R,
228,102,18,5,1,27,53,866,['n'],1,right,['2'],5,694,[-0.21402592],100,53,easy,plus,dotcolour,beta,,,13,17,V,R,
229,103,19,5,1,47,33,748,['c'],1,left,['2'],5,349,[0.08883428],99,47,medium,plus,dotcolour,beta,,,13,17,V,R,
230,104,20,5,1,44,36,917,['c'],1,left,['8'],3,1349,[0.21708137],99,44,hard,plus,dotcolour,beta,,,13,17,V,R,
231,105,21,5,1,36,44,850,['n'],1,right,['3'],4,286,[-0.10084158],99,44,hard,plus,dotcolour,beta,,,13,17,V,R,
232,106,22,5,1,53,27,648,['c'],1,left,['2'],5,386,[0.12394387],99,53,easy,plus,dotcolour,beta,,,13,17,V,R,
233,107,23,5,1,33,47,832,['n'],1,right,['3'],4,2620,[-0.36025359],99,47,medium,plus,dotcolour,beta,,,13,17,V,R,
234,108,24,5,1,33,47,1015,['c'],0,right,['3'],4,482,[-0.04429157],57,47,medium,plus,dotcolour,beta,,,13,17,V,R,
235,109,25,5,1,44,36,665,['c'],1,left,['3'],4,302,[0.08168564],99,44,hard,plus,dotcolour,beta,,,13,17,V,R,
236,110,26,5,1,27,53,632,['n'],1,right,['2'],5,578,[-0.0553113],93,53,easy,plus,dotcolour,beta,,,13,17,V,R,
237,111,27,5,1,36,44,682,['c'],0,right,['9'],2,1073,[0.1883638],99,44,hard,plus,dotcolour,beta,,,13,17,V,R,
238,112,28,5,1,36,44,849,['c'],0,right,['8'],3,1029,[0.08000731],92,44,hard,plus,dotcolour,beta,,,13,17,V,R,
239,113,29,5,1,33,47,1248,['n'],1,right,['3'],4,412,[-0.14231229],100,47,medium,plus,dotcolour,beta,,,13,17,V,R,
240,114,30,5,1,53,27,716,['c'],1,left,['2'],5,320,[0.11000508],99,53,easy,plus,dotcolour,beta,,,13,17,V,R,
241,115,31,5,1,36,44,932,['n'],1,right,['8'],3,663,[-0.06520616],94,44,hard,plus,dotcolour,beta,,,13,17,V,R,
242,116,32,5,1,33,47,782,['c'],0,right,['3'],4,751,[0.07239449],93,47,medium,plus,dotcolour,beta,,,13,17,V,R,
243,117,33,5,1,53,27,599,['c'],1,left,['3'],4,1179,[0.18712086],98,53,easy,plus,dotcolour,beta,,,13,17,V,R,
244,118,34,5,1,44,36,749,['c'],1,left,['3'],4,287,[0.05484257],98,44,hard,plus,dotcolour,beta,,,13,17,V,R,
245,119,35,5,1,53,27,815,['c'],1,left,['2'],5,357,[0.16748487],100,53,easy,plus,dotcolour,beta,,,13,17,V,R,
246,120,36,5,1,53,27,649,['c'],1,left,['3'],4,846,[0.18762766],99,53,easy,plus,dotcolour,beta,,,13,17,V,R,
247,121,37,5,1,53,27,666,['c'],1,left,['2'],5,267,[0.09178289],99,53,easy,plus,dotcolour,beta,,,13,17,V,R,
248,122,38,5,1,47,33,716,['c'],1,left,['2'],5,461,[0.1047008],99,47,medium,plus,dotcolour,beta,,,13,17,V,R,
249,123,39,5,1,47,33,550,['c'],1,left,['1'],6,278,[0.09940868],99,47,medium,plus,dotcolour,beta,,,13,17,V,R,
250,124,40,5,1,27,53,884,['n'],1,right,['2'],5,329,[-0.08479936],99,53,easy,plus,dotcolour,beta,,,13,17,V,R,
251,125,41,5,1,27,53,598,['n'],1,right,['1'],6,270,[-0.09000563],99,53,easy,plus,dotcolour,beta,,,13,17,V,R,
252,0,0,6,2,47,33,733,['c'],1,left,['3'],4,330,[0.22393584],99,47,medium,minus,dotcolour,beta,,,13,17,V,R,
253,1,1,6,2,44,36,716,['n'],0,left,['3'],4,258,[0.07190513],1,44,hard,minus,dotcolour,beta,,,13,17,V,R,
254,2,2,6,2,36,44,949,['n'],1,right,['8'],3,395,[-0.1254995],88,44,hard,minus,dotcolour,beta,,,13,17,V,R,
255,3,3,6,2,47,33,716,['c'],1,left,['3'],4,808,[0.12112743],79,47,medium,minus,dotcolour,beta,,,13,17,V,R,
256,4,4,6,2,36,44,782,['n'],1,right,['3'],4,1642,[0.03951283],21,44,hard,minus,dotcolour,beta,,,13,17,V,R,
257,5,5,6,2,53,27,733,['c'],1,left,['2'],5,740,[0.25177492],98,53,easy,minus,dotcolour,beta,,,13,17,V,R,
258,6,6,6,2,47,33,649,['n'],0,left,['9'],2,1110,[0.07475639],10,47,medium,minus,dotcolour,beta,,,13,17,V,R,
259,7,7,6,2,53,27,682,['c'],1,left,['2'],5,343,[0.0698871],61,53,easy,minus,dotcolour,beta,,,13,17,V,R,
260,8,8,6,2,33,47,732,['n'],1,right,['9'],2,733,[-0.05432804],49,47,medium,minus,dotcolour,beta,,,13,17,V,R,
261,9,9,6,2,33,47,766,['n'],1,right,['3'],4,1003,[-0.04712516],46,47,medium,minus,dotcolour,beta,,,13,17,V,R,
262,10,10,6,2,27,53,682,['n'],1,right,['8'],3,1489,[-0.30196553],97,53,easy,minus,dotcolour,beta,,,13,17,V,R,
263,11,11,6,2,33,47,1399,['c'],0,right,['3'],4,374,[0.06404497],56,47,medium,minus,dotcolour,beta,,,13,17,V,R,
264,12,12,6,2,44,36,1216,['n'],0,left,['3'],4,1040,[-0.07942002],60,44,hard,minus,dotcolour,beta,,,13,17,V,R,
265,13,13,6,2,27,53,699,['n'],1,right,['8'],3,540,[-0.12481461],85,53,easy,minus,dotcolour,beta,,,13,17,V,R,
266,14,14,6,2,53,27,965,['c'],1,left,['2'],5,1577,[0.37454003],99,53,easy,minus,dotcolour,beta,,,13,17,V,R,
267,15,15,6,2,36,44,800,['n'],1,right,['8'],3,627,[-0.09057345],69,44,hard,minus,dotcolour,beta,,,13,17,V,R,
268,16,16,6,2,27,53,717,['n'],1,right,['3'],4,1766,[-0.41334578],99,53,easy,minus,dotcolour,beta,,,13,17,V,R,
269,17,17,6,2,36,44,932,['n'],1,right,['3'],4,699,[-0.06796929],57,44,hard,minus,dotcolour,beta,,,13,17,V,R,
270,18,18,6,2,36,44,1248,['n'],1,right,['2'],5,1703,[-0.03980115],45,44,hard,minus,dotcolour,beta,,,13,17,V,R,
271,19,19,6,2,47,33,915,['c'],1,left,['8'],3,3127,[0.32144796],94,47,medium,minus,dotcolour,beta,,,13,17,V,R,
272,20,20,6,2,44,36,932,['c'],1,left,['8'],3,726,[0.04917578],47,44,hard,minus,dotcolour,beta,,,13,17,V,R,
273,21,21,6,2,47,33,1098,['c'],1,left,['3'],4,622,[0.14889894],89,47,medium,minus,dotcolour,beta,,,13,17,V,R,
274,22,22,6,2,36,44,1230,['n'],1,right,['9'],2,1101,[-0.02883686],39,44,hard,minus,dotcolour,beta,,,13,17,V,R,
275,23,23,6,2,53,27,681,['c'],1,left,['2'],5,1135,[0.18002911],89,53,easy,minus,dotcolour,beta,,,13,17,V,R,
276,24,24,6,2,33,47,749,['n'],1,right,['3'],4,909,[-0.14834572],85,47,medium,minus,dotcolour,beta,,,13,17,V,R,
277,25,25,6,2,27,53,1000,['n'],1,right,['3'],4,674,[-0.11409616],78,53,easy,minus,dotcolour,beta,,,13,17,V,R,
278,26,26,6,2,33,47,732,['n'],1,right,['2'],5,1219,[-0.24764919],96,47,medium,minus,dotcolour,beta,,,13,17,V,R,
279,27,27,6,2,27,53,600,['n'],1,right,['1'],6,443,[-0.24111748],99,53,easy,minus,dotcolour,beta,,,13,17,V,R,
280,28,28,6,2,44,36,931,['c'],1,left,['1'],6,382,[0.10167676],79,44,hard,minus,dotcolour,beta,,,13,17,V,R,
281,29,29,6,2,44,36,713,['c'],1,left,['2'],5,347,[0.0892855],74,44,hard,minus,dotcolour,beta,,,13,17,V,R,
282,30,30,6,2,33,47,1016,['n'],1,right,['9'],2,1326,[-0.31964743],98,47,medium,minus,dotcolour,beta,,,13,17,V,R,
283,31,31,6,2,53,27,632,['c'],1,left,['1'],6,337,[0.20142357],99,53,easy,minus,dotcolour,beta,,,13,17,V,R,
284,32,32,6,2,36,44,599,['n'],1,right,['8'],3,1174,[-0.09370561],65,44,hard,minus,dotcolour,beta,,,13,17,V,R,
285,33,33,6,2,44,36,599,['c'],1,left,['2'],5,400,[0.17493859],97,44,hard,minus,dotcolour,beta,,,13,17,V,R,
286,34,34,6,2,27,53,649,['n'],1,right,['1'],6,360,[-0.05730611],51,53,easy,minus,dotcolour,beta,,,13,17,V,R,
287,35,35,6,2,53,27,616,['c'],1,left,['2'],5,330,[0.00886422],19,53,easy,minus,dotcolour,beta,,,13,17,V,R,
288,36,36,6,2,53,27,916,['c'],1,left,['3'],4,346,[0.06011709],53,53,easy,minus,dotcolour,beta,,,13,17,V,R,
289,37,37,6,2,44,36,932,['c'],1,left,['3'],4,272,[0.12823548],92,44,hard,minus,dotcolour,beta,,,13,17,V,R,
290,38,38,6,2,47,33,666,['c'],1,left,['3'],4,276,[0.13841607],94,47,medium,minus,dotcolour,beta,,,13,17,V,R,
291,39,39,6,2,27,53,682,['n'],1,right,['3'],4,632,[-0.17494174],94,53,easy,minus,dotcolour,beta,,,13,17,V,R,
292,40,40,6,2,47,33,733,['c'],1,left,['2'],5,322,[0.10706876],84,47,medium,minus,dotcolour,beta,,,13,17,V,R,
293,41,41,6,2,33,47,1231,['c'],0,right,['3'],4,694,[-0.11877401],2,47,medium,minus,dotcolour,beta,,,13,17,V,R,
294,42,0,7,2,44,36,1415,['c'],1,left,['3'],4,959,[0.14492397],84,44,hard,minus,dotcolour,beta,,,13,17,V,R,
295,43,1,7,2,36,44,1350,['n'],1,right,['2'],5,1228,[-0.04287939],45,44,hard,minus,dotcolour,beta,,,13,17,V,R,
296,44,2,7,2,47,33,748,['c'],1,left,['3'],4,262,[0.09900046],82,47,medium,minus,dotcolour,beta,,,13,17,V,R,
297,45,3,7,2,47,33,998,['c'],1,left,['3'],4,646,[0.05338453],49,47,medium,minus,dotcolour,beta,,,13,17,V,R,
298,46,4,7,2,47,33,766,['c'],1,left,['2'],5,399,[-0.00484338],15,47,medium,minus,dotcolour,beta,,,13,17,V,R,
299,47,5,7,2,33,47,1632,['n'],1,right,['9'],2,398,[-0.09298231],74,47,medium,minus,dotcolour,beta,,,13,17,V,R,
300,48,6,7,2,53,27,631,['c'],1,left,['2'],5,487,[0.15379252],93,53,easy,minus,dotcolour,beta,,,13,17,V,R,
301,49,7,7,2,47,33,682,['c'],1,left,['3'],4,802,[0.05880755],52,47,medium,minus,dotcolour,beta,,,13,17,V,R,
302,50,8,7,2,44,36,2133,['n'],0,left,['9'],2,749,[-0.05492973],50,44,hard,minus,dotcolour,beta,,,13,17,V,R,
303,51,9,7,2,33,47,1932,['n'],1,right,['8'],3,379,[-0.04330709],41,47,medium,minus,dotcolour,beta,,,13,17,V,R,
304,52,10,7,2,27,53,1583,['n'],1,right,['3'],4,414,[-0.09349291],74,53,easy,minus,dotcolour,beta,,,13,17,V,R,
305,53,11,7,2,33,47,767,['c'],0,right,['3'],4,833,[-0.07942967],7,47,medium,minus,dotcolour,beta,,,13,17,V,R,
306,54,12,7,2,36,44,1132,['n'],1,right,['2'],5,635,[0.02058449],15,44,hard,minus,dotcolour,beta,,,13,17,V,R,
307,55,13,7,2,27,53,1132,['n'],1,right,['3'],4,469,[-0.19435366],97,53,easy,minus,dotcolour,beta,,,13,17,V,R,
308,56,14,7,2,33,47,814,['n'],1,right,['3'],4,299,[-0.08818066],75,47,medium,minus,dotcolour,beta,,,13,17,V,R,
309,57,15,7,2,27,53,766,['n'],1,right,['3'],4,346,[-0.20391063],99,53,easy,minus,dotcolour,beta,,,13,17,V,R,
310,58,16,7,2,44,36,1416,['c'],1,left,['2'],5,1309,[-0.02517643],22,44,hard,minus,dotcolour,beta,,,13,17,V,R,
311,59,17,7,2,53,27,650,['c'],1,left,['3'],4,328,[0.16023882],96,53,easy,minus,dotcolour,beta,,,13,17,V,R,
312,60,18,7,2,27,53,682,['n'],1,right,['1'],6,466,[-0.17332787],96,53,easy,minus,dotcolour,beta,,,13,17,V,R,
313,61,19,7,2,36,44,715,['n'],1,right,['3'],4,915,[-0.12994397],80,44,hard,minus,dotcolour,beta,,,13,17,V,R,
314,62,20,7,2,53,27,898,['c'],1,left,['3'],4,620,[0.04064495],42,53,easy,minus,dotcolour,beta,,,13,17,V,R,
315,63,21,7,2,44,36,1549,['c'],1,left,['3'],4,567,[0.21079814],98,44,hard,minus,dotcolour,beta,,,13,17,V,R,
316,64,22,7,2,53,27,816,['c'],1,left,['3'],4,290,[0.12684036],92,53,easy,minus,dotcolour,beta,,,13,17,V,R,
317,65,23,7,2,36,44,1532,['c'],0,right,['3'],4,555,[-0.05492317],6,44,hard,minus,dotcolour,beta,,,13,17,V,R,
318,66,24,7,2,36,44,1999,['c'],0,right,['8'],3,614,[-0.10705509],2,44,hard,minus,dotcolour,beta,,,13,17,V,R,
319,67,25,7,2,47,33,898,['c'],1,left,['3'],4,403,[0.10808613],82,47,medium,minus,dotcolour,beta,,,13,17,V,R,
320,68,26,7,2,36,44,932,['n'],1,right,['9'],2,863,[-0.14799074],86,44,hard,minus,dotcolour,beta,,,13,17,V,R,
321,69,27,7,2,33,47,999,['c'],0,right,['8'],3,998,[-0.00619089],25,47,medium,minus,dotcolour,beta,,,13,17,V,R,
322,70,28,7,2,44,36,797,['c'],1,left,['3'],4,399,[0.04342661],41,44,hard,minus,dotcolour,beta,,,13,17,V,R,
323,71,29,7,2,44,36,966,['c'],1,left,['3'],4,3099,[0.06124343],51,44,hard,minus,dotcolour,beta,,,13,17,V,R,
324,72,30,7,2,53,27,632,['c'],1,left,['3'],4,270,[0.1620826],98,53,easy,minus,dotcolour,beta,,,13,17,V,R,
325,73,31,7,2,27,53,1215,['n'],1,right,['8'],3,1932,[-0.41462775],99,53,easy,minus,dotcolour,beta,,,13,17,V,R,
326,74,32,7,2,44,36,782,['c'],1,left,['3'],4,360,[-0.00520121],14,44,hard,minus,dotcolour,beta,,,13,17,V,R,
327,75,33,7,2,27,53,615,['n'],1,right,['2'],5,794,[-0.19511522],94,53,easy,minus,dotcolour,beta,,,13,17,V,R,
328,76,34,7,2,47,33,849,['c'],1,left,['2'],5,730,[0.13374255],84,47,medium,minus,dotcolour,beta,,,13,17,V,R,
329,77,35,7,2,53,27,667,['c'],1,left,['1'],6,412,[0.16581351],96,53,easy,minus,dotcolour,beta,,,13,17,V,R,
330,78,36,7,2,36,44,782,['n'],1,right,['8'],3,1366,[-0.19721904],90,44,hard,minus,dotcolour,beta,,,13,17,V,R,
331,79,37,7,2,53,27,682,['c'],1,left,['3'],4,293,[0.07836485],68,53,easy,minus,dotcolour,beta,,,13,17,V,R,
332,80,38,7,2,33,47,1114,['n'],1,right,['3'],4,374,[-0.06249095],55,47,medium,minus,dotcolour,beta,,,13,17,V,R,
333,81,39,7,2,27,53,1081,['n'],1,right,['2'],5,1965,[-0.23547963],91,53,easy,minus,dotcolour,beta,,,13,17,V,R,
334,82,40,7,2,33,47,1215,['n'],1,right,['8'],3,1559,[-0.39948897],99,47,medium,minus,dotcolour,beta,,,13,17,V,R,
335,83,41,7,2,47,33,816,['c'],1,left,['2'],5,433,[0.15600183],94,47,medium,minus,dotcolour,beta,,,13,17,V,R,
336,84,0,8,2,36,44,2699,['n'],1,right,['0'],1,848,[-0.09472189],68,44,hard,minus,dotcolour,beta,,,13,17,V,R,
337,85,1,8,2,27,53,798,['n'],1,right,['3'],4,344,[-0.15461968],95,53,easy,minus,dotcolour,beta,,,13,17,V,R,
338,86,2,8,2,27,53,782,['n'],1,right,['2'],5,860,[-0.26316576],98,53,easy,minus,dotcolour,beta,,,13,17,V,R,
339,87,3,8,2,33,47,648,['n'],1,right,['2'],5,409,[-0.10526151],80,47,medium,minus,dotcolour,beta,,,13,17,V,R,
340,88,4,8,2,33,47,1399,['n'],1,right,['8'],3,1067,[-0.0760254],59,47,medium,minus,dotcolour,beta,,,13,17,V,R,
341,89,5,8,2,44,36,832,['c'],1,left,['3'],4,424,[-0.08012276],2,44,hard,minus,dotcolour,beta,,,13,17,V,R,
342,90,6,8,2,36,44,1599,['c'],0,right,['9'],2,1041,[-0.01808998],21,44,hard,minus,dotcolour,beta,,,13,17,V,R,
343,91,7,8,2,47,33,717,['c'],1,left,['3'],4,524,[0.13992274],89,47,medium,minus,dotcolour,beta,,,13,17,V,R,
344,92,8,8,2,36,44,1015,['c'],0,right,['3'],4,319,[0.06604013],58,44,hard,minus,dotcolour,beta,,,13,17,V,R,
345,93,9,8,2,53,27,749,['c'],1,left,['3'],4,271,[0.09006058],77,53,easy,minus,dotcolour,beta,,,13,17,V,R,
346,94,10,8,2,44,36,750,['c'],1,left,['3'],4,223,[0.06091616],55,44,hard,minus,dotcolour,beta,,,13,17,V,R,
347,95,11,8,2,44,36,849,['c'],1,left,['3'],4,453,[0.19122964],97,44,hard,minus,dotcolour,beta,,,13,17,V,R,
348,96,12,8,2,27,53,882,['n'],1,right,['3'],4,1090,[-0.22428678],95,53,easy,minus,dotcolour,beta,,,13,17,V,R,
349,97,13,8,2,36,44,1199,['c'],0,right,['8'],3,1191,[-0.00073668],28,44,hard,minus,dotcolour,beta,,,13,17,V,R,
350,98,14,8,2,47,33,848,['c'],1,left,['2'],5,543,[0.107372],78,47,medium,minus,dotcolour,beta,,,13,17,V,R,
351,99,15,8,2,47,33,715,['c'],1,left,['2'],5,1470,[0.24094453],94,47,medium,minus,dotcolour,beta,,,13,17,V,R,
352,100,16,8,2,27,53,1082,['n'],1,right,['2'],5,465,[-0.18588635],97,53,easy,minus,dotcolour,beta,,,13,17,V,R,
353,101,17,8,2,47,33,848,['c'],1,left,['2'],5,566,[0.18387297],96,47,medium,minus,dotcolour,beta,,,13,17,V,R,
354,102,18,8,2,53,27,748,['c'],1,left,['2'],5,347,[0.11145975],85,53,easy,minus,dotcolour,beta,,,13,17,V,R,
355,103,19,8,2,36,44,1066,['n'],1,right,['3'],4,236,[-0.11521455],90,44,hard,minus,dotcolour,beta,,,13,17,V,R,
356,104,20,8,2,53,27,748,['c'],1,left,['2'],5,967,[0.16292861],88,53,easy,minus,dotcolour,beta,,,13,17,V,R,
357,105,21,8,2,33,47,1184,['n'],1,right,['8'],3,578,[-0.06878223],58,47,medium,minus,dotcolour,beta,,,13,17,V,R,
358,106,22,8,2,44,36,750,['c'],1,left,['3'],4,326,[0.1446066],94,44,hard,minus,dotcolour,beta,,,13,17,V,R,
359,107,23,8,2,47,33,1882,['c'],1,left,['8'],3,1279,[0.16998407],86,47,medium,minus,dotcolour,beta,,,13,17,V,R,
360,108,24,8,2,27,53,731,['n'],1,right,['3'],4,384,[-0.10739481],82,53,easy,minus,dotcolour,beta,,,13,17,V,R,
361,109,25,8,2,33,47,1199,['n'],1,right,['2'],5,306,[-0.03953562],37,47,medium,minus,dotcolour,beta,,,13,17,V,R,
362,110,26,8,2,27,53,1065,['n'],1,right,['9'],2,829,[-0.25873294],98,53,easy,minus,dotcolour,beta,,,13,17,V,R,
363,111,27,8,2,53,27,782,['c'],1,left,['2'],5,462,[0.15441566],93,53,easy,minus,dotcolour,beta,,,13,17,V,R,
364,112,28,8,2,53,27,816,['c'],1,left,['3'],4,348,[0.19256892],98,53,easy,minus,dotcolour,beta,,,13,17,V,R,
365,113,29,8,2,33,47,784,['n'],1,right,['3'],4,280,[-0.06411829],57,47,medium,minus,dotcolour,beta,,,13,17,V,R,
366,114,30,8,2,36,44,1065,['c'],0,right,['2'],5,317,[0.09434482],78,44,hard,minus,dotcolour,beta,,,13,17,V,R,
367,115,31,8,2,53,27,731,['c'],1,left,['2'],5,861,[-0.03620953],14,53,easy,minus,dotcolour,beta,,,13,17,V,R,
368,116,32,8,2,44,36,631,['c'],1,left,['3'],4,226,[0.0686691],62,44,hard,minus,dotcolour,beta,,,13,17,V,R,
369,117,33,8,2,33,47,1282,['n'],1,right,['0'],1,1359,[-0.19384856],89,47,medium,minus,dotcolour,beta,,,13,17,V,R,
370,118,34,8,2,44,36,782,['c'],1,left,['3'],4,387,[0.15829983],95,44,hard,minus,dotcolour,beta,,,13,17,V,R,
371,119,35,8,2,27,53,1183,['n'],1,right,['2'],5,350,[-0.21893389],99,53,easy,minus,dotcolour,beta,,,13,17,V,R,
372,120,36,8,2,44,36,683,['c'],1,left,['2'],5,429,[0.08365527],68,44,hard,minus,dotcolour,beta,,,13,17,V,R,
373,121,37,8,2,36,44,966,['c'],0,right,['3'],4,519,[0.07264404],61,44,hard,minus,dotcolour,beta,,,13,17,V,R,
374,122,38,8,2,33,47,1182,['n'],1,right,['3'],4,348,[-0.09856159],79,47,medium,minus,dotcolour,beta,,,13,17,V,R,
375,123,39,8,2,47,33,1016,['c'],1,left,['3'],4,927,[0.19992277],94,47,medium,minus,dotcolour,beta,,,13,17,V,R,
376,124,40,8,2,53,27,1166,['c'],1,left,['2'],5,261,[0.15402596],97,53,easy,minus,dotcolour,beta,,,13,17,V,R,
377,125,41,8,2,47,33,865,['c'],1,left,['2'],5,729,[0.20020189],95,47,medium,minus,dotcolour,beta,,,13,17,V,R,
378,0,0,9,3,33,47,1200,['n'],1,right,['3'],4,1562,[-0.27449572],99,47,medium,plus,dotcolour,beta,,,13,17,V,R,
379,1,1,9,3,44,36,632,['c'],1,left,['2'],5,356,[0.12896869],100,44,hard,plus,dotcolour,beta,,,13,17,V,R,
380,2,2,9,3,27,53,664,['n'],1,right,['2'],5,333,[-0.16874334],100,53,easy,plus,dotcolour,beta,,,13,17,V,R,
381,3,3,9,3,53,27,649,['c'],1,left,['1'],6,559,[0.11311893],98,53,easy,plus,dotcolour,beta,,,13,17,V,R,
382,4,4,9,3,47,33,632,['c'],1,left,['2'],5,305,[0.08064946],99,47,medium,plus,dotcolour,beta,,,13,17,V,R,
383,5,5,9,3,44,36,1150,['c'],1,left,['2'],5,312,[0.04434778],96,44,hard,plus,dotcolour,beta,,,13,17,V,R,
384,6,6,9,3,53,27,549,['c'],1,left,['1'],6,327,[0.03801132],95,53,easy,plus,dotcolour,beta,,,13,17,V,R,
385,7,7,9,3,44,36,799,['n'],0,left,['3'],4,420,[0.01637978],75,44,hard,plus,dotcolour,beta,,,13,17,V,R,
386,8,8,9,3,27,53,748,['n'],1,right,['2'],5,326,[-0.05613643],97,53,easy,plus,dotcolour,beta,,,13,17,V,R,
387,9,9,9,3,27,53,848,['n'],1,right,['3'],4,177,[-0.06299408],99,53,easy,plus,dotcolour,beta,,,13,17,V,R,
388,10,10,9,3,33,47,965,['n'],1,right,['8'],3,645,[-0.11678382],98,47,medium,plus,dotcolour,beta,,,13,17,V,R,
389,11,11,9,3,44,36,630,['c'],1,left,['2'],5,275,[0.14728232],100,44,hard,plus,dotcolour,beta,,,13,17,V,R,
390,12,12,9,3,53,27,581,['c'],1,left,['2'],5,290,[0.12636385],100,53,easy,plus,dotcolour,beta,,,13,17,V,R,
391,13,13,9,3,47,33,615,['c'],1,left,['2'],5,287,[0.15111978],100,47,medium,plus,dotcolour,beta,,,13,17,V,R,
392,14,14,9,3,47,33,798,['c'],1,left,['1'],6,357,[0.17339368],100,47,medium,plus,dotcolour,beta,,,13,17,V,R,
393,15,15,9,3,27,53,615,['n'],1,right,['1'],6,256,[-0.14753249],100,53,easy,plus,dotcolour,beta,,,13,17,V,R,
394,16,16,9,3,27,53,682,['n'],1,right,['1'],6,292,[-0.20186286],100,53,easy,plus,dotcolour,beta,,,13,17,V,R,
395,17,17,9,3,44,36,1482,['c'],1,left,['2'],5,647,[0.17186969],99,44,hard,plus,dotcolour,beta,,,13,17,V,R,
396,18,18,9,3,36,44,732,['c'],0,right,['2'],5,417,[0.0963865],99,44,hard,plus,dotcolour,beta,,,13,17,V,R,
397,19,19,9,3,47,33,1448,['n'],0,left,['3'],4,264,[-0.10500787],100,47,medium,plus,dotcolour,beta,,,13,17,V,R,
398,20,20,9,3,44,36,1215,['c'],1,left,['3'],4,350,[0.19199384],100,44,hard,plus,dotcolour,beta,,,13,17,V,R,
399,21,21,9,3,53,27,682,['c'],1,left,['2'],5,575,[0.21072875],100,53,easy,plus,dotcolour,beta,,,13,17,V,R,
400,22,22,9,3,47,33,749,['c'],1,left,['2'],5,323,[0.15583551],100,47,medium,plus,dotcolour,beta,,,13,17,V,R,
401,23,23,9,3,36,44,1116,['n'],1,right,['2'],5,403,[-0.06587189],97,44,hard,plus,dotcolour,beta,,,13,17,V,R,
402,24,24,9,3,27,53,732,['n'],1,right,['1'],6,415,[-0.07713762],98,53,easy,plus,dotcolour,beta,,,13,17,V,R,
403,25,25,9,3,53,27,632,['c'],1,left,['1'],6,303,[0.11754457],100,53,easy,plus,dotcolour,beta,,,13,17,V,R,
404,26,26,9,3,44,36,1348,['c'],1,left,['2'],5,878,[0.30785311],100,44,hard,plus,dotcolour,beta,,,13,17,V,R,
405,27,27,9,3,33,47,1333,['n'],1,right,['9'],2,1455,[-0.05592137],84,47,medium,plus,dotcolour,beta,,,13,17,V,R,
406,28,28,9,3,47,33,583,['c'],1,left,['1'],6,374,[0.17120841],100,47,medium,plus,dotcolour,beta,,,13,17,V,R,
407,29,29,9,3,33,47,917,['n'],1,right,['2'],5,388,[-0.16921109],100,47,medium,plus,dotcolour,beta,,,13,17,V,R,
408,30,30,9,3,33,47,1531,['c'],0,right,['3'],4,425,[-0.01898716],73,47,medium,plus,dotcolour,beta,,,13,17,V,R,
409,31,31,9,3,53,27,782,['c'],1,left,['3'],4,338,[0.10970814],99,53,easy,plus,dotcolour,beta,,,13,17,V,R,
410,32,32,9,3,33,47,682,['n'],1,right,['2'],5,362,[-0.09315787],99,47,medium,plus,dotcolour,beta,,,13,17,V,R,
411,33,33,9,3,36,44,816,['c'],0,right,['2'],5,325,[0.02433075],93,44,hard,plus,dotcolour,beta,,,13,17,V,R,
412,34,34,9,3,33,47,848,['n'],1,right,['2'],5,623,[-0.2444971],100,47,medium,plus,dotcolour,beta,,,13,17,V,R,
413,35,35,9,3,36,44,1215,['n'],1,right,['3'],4,591,[-0.20932672],100,44,hard,plus,dotcolour,beta,,,13,17,V,R,
414,36,36,9,3,47,33,1050,['c'],1,left,['3'],4,287,[0.17943971],100,47,medium,plus,dotcolour,beta,,,13,17,V,R,
415,37,37,9,3,53,27,681,['c'],1,left,['2'],5,210,[0.11580144],100,53,easy,plus,dotcolour,beta,,,13,17,V,R,
416,38,38,9,3,36,44,1749,['n'],1,right,['9'],2,629,[-0.06470074],94,44,hard,plus,dotcolour,beta,,,13,17,V,R,
417,39,39,9,3,27,53,732,['n'],1,right,['2'],5,288,[-0.08950101],99,53,easy,plus,dotcolour,beta,,,13,17,V,R,
418,40,40,9,3,36,44,764,['n'],1,right,['3'],4,615,[-0.07657396],95,44,hard,plus,dotcolour,beta,,,13,17,V,R,
419,41,41,9,3,36,44,1050,['n'],1,right,['2'],5,389,[-0.15954355],100,44,hard,plus,dotcolour,beta,,,13,17,V,R,
420,42,0,10,3,47,33,850,['c'],1,left,['2'],5,291,[0.05597946],98,47,medium,plus,dotcolour,beta,,,13,17,V,R,
421,43,1,10,3,33,47,816,['n'],1,right,['2'],5,288,[-0.06412606],98,47,medium,plus,dotcolour,beta,,,13,17,V,R,
422,44,2,10,3,33,47,798,['n'],1,right,['1'],6,365,[-0.06022042],97,47,medium,plus,dotcolour,beta,,,13,17,V,R,
423,45,3,10,3,44,36,648,['c'],1,left,['2'],5,303,[0.05079387],97,44,hard,plus,dotcolour,beta,,,13,17,V,R,
424,46,4,10,3,27,53,1065,['n'],1,right,['1'],6,210,[-0.11020435],100,53,easy,plus,dotcolour,beta,,,13,17,V,R,
425,47,5,10,3,33,47,598,['n'],1,right,['2'],5,235,[-0.10003558],100,47,medium,plus,dotcolour,beta,,,13,17,V,R,
426,48,6,10,3,44,36,682,['c'],1,left,['2'],5,864,[0.12304695],97,44,hard,plus,dotcolour,beta,,,13,17,V,R,
427,49,7,10,3,47,33,599,['c'],1,left,['3'],4,894,[0.12413376],97,47,medium,plus,dotcolour,beta,,,13,17,V,R,
428,50,8,10,3,53,27,533,['c'],1,left,['2'],5,214,[0.16339215],100,53,easy,plus,dotcolour,beta,,,13,17,V,R,
429,51,9,10,3,36,44,1050,['n'],1,right,['8'],3,1070,[-0.1852739],99,44,hard,plus,dotcolour,beta,,,13,17,V,R,
430,52,10,10,3,44,36,1382,['c'],1,left,['2'],5,357,[0.07971351],98,44,hard,plus,dotcolour,beta,,,13,17,V,R,
431,53,11,10,3,27,53,899,['n'],1,right,['3'],4,332,[-0.11912375],100,53,easy,plus,dotcolour,beta,,,13,17,V,R,
432,54,12,10,3,33,47,1350,['c'],0,right,['3'],4,282,[0.00609994],89,47,medium,plus,dotcolour,beta,,,13,17,V,R,
433,55,13,10,3,36,44,949,['c'],0,right,['3'],4,346,[0.04065721],95,44,hard,plus,dotcolour,beta,,,13,17,V,R,
434,56,14,10,3,27,53,715,['n'],1,right,['3'],4,273,[-0.15445566],100,53,easy,plus,dotcolour,beta,,,13,17,V,R,
435,57,15,10,3,44,36,781,['c'],1,left,['2'],5,233,[0.10525153],100,44,hard,plus,dotcolour,beta,,,13,17,V,R,
436,58,16,10,3,53,27,782,['c'],1,left,['2'],5,242,[0.09494312],100,53,easy,plus,dotcolour,beta,,,13,17,V,R,
437,59,17,10,3,36,44,2100,['c'],0,right,['3'],4,742,[0.13050961],98,44,hard,plus,dotcolour,beta,,,13,17,V,R,
438,60,18,10,3,27,53,732,['n'],1,right,['8'],3,748,[-0.15374526],99,53,easy,plus,dotcolour,beta,,,13,17,V,R,
439,61,19,10,3,36,44,699,['c'],0,right,['2'],5,228,[0.05676407],99,44,hard,plus,dotcolour,beta,,,13,17,V,R,
440,62,20,10,3,47,33,747,['c'],1,left,['1'],6,182,[0.13781205],100,47,medium,plus,dotcolour,beta,,,13,17,V,R,
441,63,21,10,3,27,53,716,['n'],1,right,['1'],6,252,[-0.13325405],100,53,easy,plus,dotcolour,beta,,,13,17,V,R,
442,64,22,10,3,53,27,716,['c'],1,left,['1'],6,303,[0.14214469],100,53,easy,plus,dotcolour,beta,,,13,17,V,R,
443,65,23,10,3,33,47,799,['n'],1,right,['1'],6,260,[-0.15091598],100,47,medium,plus,dotcolour,beta,,,13,17,V,R,
444,66,24,10,3,53,27,682,['c'],1,left,['1'],6,160,[0.00627098],94,53,easy,plus,dotcolour,beta,,,13,17,V,R,
445,67,25,10,3,33,47,1450,['c'],0,right,['3'],4,241,[0.03999194],97,47,medium,plus,dotcolour,beta,,,13,17,V,R,
446,68,26,10,3,36,44,833,['c'],0,right,['3'],4,191,[0.00090182],91,44,hard,plus,dotcolour,beta,,,13,17,V,R,
447,69,27,10,3,47,33,666,['c'],1,left,['2'],5,230,[0.12189884],100,47,medium,plus,dotcolour,beta,,,13,17,V,R,
448,70,28,10,3,27,53,800,['n'],1,right,['8'],3,1143,[-0.32350956],100,53,easy,plus,dotcolour,beta,,,13,17,V,R,
449,71,29,10,3,47,33,714,['c'],1,left,['3'],4,278,[0.0461194],97,47,medium,plus,dotcolour,beta,,,13,17,V,R,
450,72,30,10,3,53,27,682,['c'],1,left,['2'],5,257,[0.016788],93,53,easy,plus,dotcolour,beta,,,13,17,V,R,
451,73,31,10,3,47,33,600,['c'],1,left,['2'],5,488,[0.231047],100,47,medium,plus,dotcolour,beta,,,13,17,V,R,
452,74,32,10,3,33,47,914,['n'],1,right,['3'],4,969,[-0.27353566],100,47,medium,plus,dotcolour,beta,,,13,17,V,R,
453,75,33,10,3,36,44,783,['c'],0,right,['2'],5,412,[-0.0576639],49,44,hard,plus,dotcolour,beta,,,13,17,V,R,
454,76,34,10,3,53,27,749,['c'],1,left,['3'],4,479,[0.21422816],100,53,easy,plus,dotcolour,beta,,,13,17,V,R,
455,77,35,10,3,44,36,967,['n'],0,left,['8'],3,527,[-0.02628],88,44,hard,plus,dotcolour,beta,,,13,17,V,R,
456,78,36,10,3,47,33,1000,['c'],1,left,['3'],4,387,[0.21006036],100,47,medium,plus,dotcolour,beta,,,13,17,V,R,
457,79,37,10,3,27,53,1033,['n'],1,right,['3'],4,372,[-0.06633104],97,53,easy,plus,dotcolour,beta,,,13,17,V,R,
458,80,38,10,3,44,36,766,['c'],1,left,['2'],5,264,[0.1687714],100,44,hard,plus,dotcolour,beta,,,13,17,V,R,
459,81,39,10,3,36,44,1401,['c'],0,right,['3'],4,247,[0.05279507],98,44,hard,plus,dotcolour,beta,,,13,17,V,R,
460,82,40,10,3,53,27,816,['c'],1,left,['2'],5,526,[0.1589053],100,53,easy,plus,dotcolour,beta,,,13,17,V,R,
461,83,41,10,3,44,36,1000,['c'],1,left,['3'],4,194,[0.08375097],100,44,hard,plus,dotcolour,beta,,,13,17,V,R,
462,84,0,11,3,53,27,734,['c'],1,left,['2'],5,202,[0.02868856],97,53,easy,plus,dotcolour,beta,,,13,17,V,R,
463,85,1,11,3,53,27,566,['c'],1,left,['2'],5,309,[0.18804848],100,53,easy,plus,dotcolour,beta,,,13,17,V,R,
464,86,2,11,3,27,53,800,['n'],1,right,['1'],6,274,[-0.02847307],95,53,easy,plus,dotcolour,beta,,,13,17,V,R,
465,87,3,11,3,53,27,717,['c'],1,left,['1'],6,211,[0.07284672],99,53,easy,plus,dotcolour,beta,,,13,17,V,R,
466,88,4,11,3,53,27,1000,['c'],1,left,['2'],5,292,[0.06618086],98,53,easy,plus,dotcolour,beta,,,13,17,V,R,
467,89,5,11,3,33,47,884,['n'],1,right,['3'],4,303,[-0.12877483],100,47,medium,plus,dotcolour,beta,,,13,17,V,R,
468,90,6,11,3,36,44,733,['c'],0,right,['2'],5,223,[0.0507212],98,44,hard,plus,dotcolour,beta,,,13,17,V,R,
469,91,7,11,3,27,53,1000,['n'],1,right,['3'],4,479,[-0.17655023],100,53,easy,plus,dotcolour,beta,,,13,17,V,R,
470,92,8,11,3,27,53,984,['c'],0,right,['3'],4,262,[0.1095944],100,53,easy,plus,dotcolour,beta,,,13,17,V,R,
471,93,9,11,3,44,36,950,['n'],0,left,['2'],5,255,[-0.0557552],98,44,hard,plus,dotcolour,beta,,,13,17,V,R,
472,94,10,11,3,47,33,767,['c'],1,left,['2'],5,192,[0.00118815],91,47,medium,plus,dotcolour,beta,,,13,17,V,R,
473,95,11,11,3,36,44,1183,['c'],0,right,['3'],4,211,[0.02677155],96,44,hard,plus,dotcolour,beta,,,13,17,V,R,
474,96,12,11,3,27,53,734,['c'],0,right,['0'],1,1182,[-0.05377658],51,53,easy,plus,dotcolour,beta,,,13,17,V,R,
475,97,13,11,3,47,33,766,['c'],1,left,['3'],4,337,[0.11605659],100,47,medium,plus,dotcolour,beta,,,13,17,V,R,
476,98,14,11,3,33,47,2134,['c'],0,right,['2'],5,264,[0.06751272],99,47,medium,plus,dotcolour,beta,,,13,17,V,R,
477,99,15,11,3,36,44,2116,['c'],0,right,['3'],4,539,[0.05499306],94,44,hard,plus,dotcolour,beta,,,13,17,V,R,
478,100,16,11,3,33,47,1901,['c'],0,right,['3'],4,306,[0.08639702],99,47,medium,plus,dotcolour,beta,,,13,17,V,R,
479,101,17,11,3,33,47,733,['n'],1,right,['2'],5,1338,[-0.13878262],95,47,medium,plus,dotcolour,beta,,,13,17,V,R,
480,102,18,11,3,44,36,850,['c'],1,left,['3'],4,276,[0.12490798],100,44,hard,plus,dotcolour,beta,,,13,17,V,R,
481,103,19,11,3,33,47,984,['n'],1,right,['3'],4,275,[-0.08204364],99,47,medium,plus,dotcolour,beta,,,13,17,V,R,
482,104,20,11,3,36,44,1184,['n'],1,right,['3'],4,578,[-0.12684392],99,44,hard,plus,dotcolour,beta,,,13,17,V,R,
483,105,21,11,3,36,44,851,['c'],0,right,['2'],5,170,[0.08209046],100,44,hard,plus,dotcolour,beta,,,13,17,V,R,
484,106,22,11,3,36,44,701,['c'],0,right,['2'],5,217,[0.01336398],93,44,hard,plus,dotcolour,beta,,,13,17,V,R,
485,107,23,11,3,27,53,916,['n'],1,right,['2'],5,477,[-0.26412107],100,53,easy,plus,dotcolour,beta,,,13,17,V,R,
486,108,24,11,3,53,27,666,['c'],1,left,['2'],5,321,[0.13187668],100,53,easy,plus,dotcolour,beta,,,13,17,V,R,
487,109,25,11,3,33,47,1000,['n'],1,right,['3'],4,245,[-0.06199301],99,47,medium,plus,dotcolour,beta,,,13,17,V,R,
488,110,26,11,3,47,33,649,['c'],1,left,['2'],5,443,[0.14505575],100,47,medium,plus,dotcolour,beta,,,13,17,V,R,
489,111,27,11,3,27,53,1017,['n'],1,right,['2'],5,402,[0.0064996],80,53,easy,plus,dotcolour,beta,,,13,17,V,R,
490,112,28,11,3,53,27,733,['c'],1,left,['2'],5,295,[0.13485504],100,53,easy,plus,dotcolour,beta,,,13,17,V,R,
491,113,29,11,3,44,36,883,['c'],1,left,['2'],5,633,[0.09011986],96,44,hard,plus,dotcolour,beta,,,13,17,V,R,
492,114,30,11,3,27,53,717,['n'],1,right,['3'],4,372,[-0.19294545],100,53,easy,plus,dotcolour,beta,,,13,17,V,R,
493,115,31,11,3,44,36,733,['c'],1,left,['3'],4,258,[0.12976127],100,44,hard,plus,dotcolour,beta,,,13,17,V,R,
494,116,32,11,3,44,36,783,['c'],1,left,['3'],4,313,[0.11855257],100,44,hard,plus,dotcolour,beta,,,13,17,V,R,
495,117,33,11,3,47,33,767,['c'],1,left,['3'],4,215,[0.14198311],100,47,medium,plus,dotcolour,beta,,,13,17,V,R,
496,118,34,11,3,47,33,766,['c'],1,left,['3'],4,218,[-0.00270792],88,47,medium,plus,dotcolour,beta,,,13,17,V,R,
497,119,35,11,3,33,47,1000,['n'],1,right,['2'],5,331,[-0.10483285],99,47,medium,plus,dotcolour,beta,,,13,17,V,R,
498,120,36,11,3,36,44,751,['c'],0,right,['3'],4,289,[0.12833915],100,44,hard,plus,dotcolour,beta,,,13,17,V,R,
499,121,37,11,3,44,36,650,['c'],1,left,['2'],5,357,[0.11687243],99,44,hard,plus,dotcolour,beta,,,13,17,V,R,
500,122,38,11,3,53,27,650,['c'],1,left,['3'],4,190,[0.12540652],100,53,easy,plus,dotcolour,beta,,,13,17,V,R,
501,123,39,11,3,47,33,749,['c'],1,left,['9'],2,1130,[0.07568602],90,47,medium,plus,dotcolour,beta,,,13,17,V,R,
502,124,40,11,3,47,33,601,['c'],1,left,['3'],4,294,[0.21758416],100,47,medium,plus,dotcolour,beta,,,13,17,V,R,
503,125,41,11,3,44,36,567,['c'],1,left,['2'],5,213,[0.02063868],95,44,hard,plus,dotcolour,beta,,,13,17,V,R,
504,0,0,12,4,47,33,899,['c'],1,left,['2'],5,214,[0.05040108],45,47,medium,minus,dotcolour,beta,,,13,17,V,R,
505,1,1,12,4,44,36,651,['c'],1,left,['2'],5,229,[0.09982545],84,44,hard,minus,dotcolour,beta,,,13,17,V,R,
506,2,2,12,4,33,47,983,['n'],1,right,['8'],3,622,[-0.217768],98,47,medium,minus,dotcolour,beta,,,13,17,V,R,
507,3,3,12,4,36,44,633,['c'],0,right,['3'],4,197,[0.11550275],92,44,hard,minus,dotcolour,beta,,,13,17,V,R,
508,4,4,12,4,33,47,784,['n'],1,right,['2'],5,303,[-0.00350361],15,47,medium,minus,dotcolour,beta,,,13,17,V,R,
509,5,5,12,4,36,44,749,['n'],1,right,['3'],4,215,[-0.09995356],85,44,hard,minus,dotcolour,beta,,,13,17,V,R,
510,6,6,12,4,27,53,866,['n'],1,right,['3'],4,269,[-0.25441087],100,53,easy,minus,dotcolour,beta,,,13,17,V,R,
511,7,7,12,4,47,33,717,['c'],1,left,['2'],5,191,[-0.03084838],3,47,medium,minus,dotcolour,beta,,,13,17,V,R,
512,8,8,12,4,33,47,950,['n'],1,right,['2'],5,459,[-0.02850936],33,47,medium,minus,dotcolour,beta,,,13,17,V,R,
513,9,9,12,4,33,47,733,['n'],1,right,['2'],5,237,[-0.09085115],79,47,medium,minus,dotcolour,beta,,,13,17,V,R,
514,10,10,12,4,47,33,766,['c'],1,left,['2'],5,254,[0.12453502],92,47,medium,minus,dotcolour,beta,,,13,17,V,R,
515,11,11,12,4,53,27,700,['c'],1,left,['1'],6,1034,[0.13669606],81,53,easy,minus,dotcolour,beta,,,13,17,V,R,
516,12,12,12,4,36,44,900,['n'],1,right,['2'],5,750,[-0.16184461],90,44,hard,minus,dotcolour,beta,,,13,17,V,R,
517,13,13,12,4,36,44,867,['n'],1,right,['3'],4,223,[-0.11221448],90,44,hard,minus,dotcolour,beta,,,13,17,V,R,
518,14,14,12,4,27,53,1050,['n'],1,right,['2'],5,327,[-0.14171918],94,53,easy,minus,dotcolour,beta,,,13,17,V,R,
519,15,15,12,4,44,36,932,['c'],1,left,['2'],5,301,[0.03275841],32,44,hard,minus,dotcolour,beta,,,13,17,V,R,
520,16,16,12,4,27,53,1001,['c'],0,right,['3'],4,755,[-0.11683159],3,53,easy,minus,dotcolour,beta,,,13,17,V,R,
521,17,17,12,4,53,27,616,['c'],1,left,['2'],5,230,[0.1048394],86,53,easy,minus,dotcolour,beta,,,13,17,V,R,
522,18,18,12,4,44,36,1299,['c'],1,left,['3'],4,378,[0.12936087],90,44,hard,minus,dotcolour,beta,,,13,17,V,R,
523,19,19,12,4,27,53,800,['n'],1,right,['2'],5,340,[-0.11661868],87,53,easy,minus,dotcolour,beta,,,13,17,V,R,
524,20,20,12,4,27,53,667,['n'],1,right,['2'],5,341,[-0.1783189],98,53,easy,minus,dotcolour,beta,,,13,17,V,R,
525,21,21,12,4,53,27,633,['c'],1,left,['1'],6,440,[0.07456544],63,53,easy,minus,dotcolour,beta,,,13,17,V,R,
526,22,22,12,4,36,44,900,['c'],0,right,['2'],5,243,[0.07376778],66,44,hard,minus,dotcolour,beta,,,13,17,V,R,
527,23,23,12,4,47,33,683,['c'],1,left,['1'],6,280,[0.1634366],98,47,medium,minus,dotcolour,beta,,,13,17,V,R,
528,24,24,12,4,44,36,1467,['n'],0,left,['9'],2,363,[-0.11356351],85,44,hard,minus,dotcolour,beta,,,13,17,V,R,
529,25,25,12,4,36,44,1600,['c'],0,right,['8'],3,1199,[-0.04022158],17,44,hard,minus,dotcolour,beta,,,13,17,V,R,
530,26,26,12,4,27,53,899,['n'],1,right,['3'],4,244,[-0.05982779],54,53,easy,minus,dotcolour,beta,,,13,17,V,R,
531,27,27,12,4,53,27,817,['c'],1,left,['2'],5,307,[0.05331347],48,53,easy,minus,dotcolour,beta,,,13,17,V,R,
532,28,28,12,4,53,27,584,['c'],1,left,['1'],6,369,[0.18366602],98,53,easy,minus,dotcolour,beta,,,13,17,V,R,
533,29,29,12,4,47,33,717,['c'],1,left,['2'],5,263,[0.17914367],99,47,medium,minus,dotcolour,beta,,,13,17,V,R,
534,30,30,12,4,33,47,934,['n'],1,right,['1'],6,240,[-0.14341799],96,47,medium,minus,dotcolour,beta,,,13,17,V,R,
535,31,31,12,4,27,53,983,['n'],1,right,['2'],5,321,[-0.14981186],95,53,easy,minus,dotcolour,beta,,,13,17,V,R,
536,32,32,12,4,47,33,1100,['c'],1,left,['3'],4,706,[0.14312489],87,47,medium,minus,dotcolour,beta,,,13,17,V,R,
537,33,33,12,4,33,47,684,['n'],1,right,['2'],5,235,[-0.0152987],18,47,medium,minus,dotcolour,beta,,,13,17,V,R,
538,34,34,12,4,44,36,749,['c'],1,left,['3'],4,246,[0.13869899],95,44,hard,minus,dotcolour,beta,,,13,17,V,R,
539,35,35,12,4,33,47,933,['n'],1,right,['3'],4,344,[-0.03045527],32,47,medium,minus,dotcolour,beta,,,13,17,V,R,
540,36,36,12,4,53,27,717,['c'],1,left,['2'],5,239,[0.0566844],51,53,easy,minus,dotcolour,beta,,,13,17,V,R,
541,37,37,12,4,53,27,750,['c'],1,left,['1'],6,657,[0.15463354],90,53,easy,minus,dotcolour,beta,,,13,17,V,R,
542,38,38,12,4,36,44,983,['c'],0,right,['3'],4,560,[0.00516127],23,44,hard,minus,dotcolour,beta,,,13,17,V,R,
543,39,39,12,4,47,33,717,['c'],1,left,['2'],5,687,[0.21967196],97,47,medium,minus,dotcolour,beta,,,13,17,V,R,
544,40,40,12,4,44,36,534,['c'],1,left,['3'],4,359,[0.09982008],79,44,hard,minus,dotcolour,beta,,,13,17,V,R,
545,41,41,12,4,44,36,983,['c'],1,left,['2'],5,202,[0.08795523],79,44,hard,minus,dotcolour,beta,,,13,17,V,R,
546,42,0,13,4,53,27,766,['c'],1,left,['2'],5,409,[0.2193762],99,53,easy,minus,dotcolour,beta,,,13,17,V,R,
547,43,1,13,4,33,47,766,['n'],1,right,['3'],4,308,[-0.00217387],15,47,medium,minus,dotcolour,beta,,,13,17,V,R,
548,44,2,13,4,27,53,1050,['n'],1,right,['8'],3,311,[-0.17200598],98,53,easy,minus,dotcolour,beta,,,13,17,V,R,
549,45,3,13,4,47,33,667,['c'],1,left,['3'],4,241,[0.16257956],98,47,medium,minus,dotcolour,beta,,,13,17,V,R,
550,46,4,13,4,36,44,1084,['c'],0,right,['2'],5,350,[0.05354389],48,44,hard,minus,dotcolour,beta,,,13,17,V,R,
551,47,5,13,4,47,33,967,['c'],1,left,['3'],4,323,[0.05895778],53,47,medium,minus,dotcolour,beta,,,13,17,V,R,
552,48,6,13,4,44,36,884,['c'],1,left,['2'],5,228,[0.03592178],32,44,hard,minus,dotcolour,beta,,,13,17,V,R,
553,49,7,13,4,33,47,1333,['n'],1,right,['9'],2,287,[-0.11089444],87,47,medium,minus,dotcolour,beta,,,13,17,V,R,
554,50,8,13,4,53,27,917,['c'],1,left,['2'],5,321,[0.06886081],60,53,easy,minus,dotcolour,beta,,,13,17,V,R,
555,51,9,13,4,27,53,867,['n'],1,right,['3'],4,691,[-0.03184115],37,53,easy,minus,dotcolour,beta,,,13,17,V,R,
556,52,10,13,4,27,53,950,['n'],1,right,['3'],4,275,[-0.22234091],100,53,easy,minus,dotcolour,beta,,,13,17,V,R,
557,53,11,13,4,33,47,1100,['c'],0,right,['3'],4,302,[0.03883217],37,47,medium,minus,dotcolour,beta,,,13,17,V,R,
558,54,12,13,4,33,47,950,['n'],1,right,['9'],2,1981,[-0.28573563],95,47,medium,minus,dotcolour,beta,,,13,17,V,R,
559,55,13,13,4,36,44,1134,['c'],0,right,['3'],4,281,[0.09612286],80,44,hard,minus,dotcolour,beta,,,13,17,V,R,
560,56,14,13,4,36,44,1683,['n'],1,right,['2'],5,988,[-0.30735816],99,44,hard,minus,dotcolour,beta,,,13,17,V,R,
561,57,15,13,4,47,33,1467,['c'],1,left,['3'],4,195,[0.20056644],100,47,medium,minus,dotcolour,beta,,,13,17,V,R,
562,58,16,13,4,36,44,1367,['n'],1,right,['8'],3,647,[-0.0715021],59,44,hard,minus,dotcolour,beta,,,13,17,V,R,
563,59,17,13,4,53,27,667,['c'],1,left,['2'],5,187,[0.03181275],27,53,easy,minus,dotcolour,beta,,,13,17,V,R,
564,60,18,13,4,27,53,683,['n'],1,right,['2'],5,219,[-0.11365603],90,53,easy,minus,dotcolour,beta,,,13,17,V,R,
565,61,19,13,4,47,33,1200,['c'],1,left,['2'],5,323,[0.09834066],79,47,medium,minus,dotcolour,beta,,,13,17,V,R,
566,62,20,13,4,36,44,733,['n'],1,right,['1'],6,298,[-0.06058581],54,44,hard,minus,dotcolour,beta,,,13,17,V,R,
567,63,21,13,4,53,27,734,['c'],1,left,['2'],5,275,[0.14394453],95,53,easy,minus,dotcolour,beta,,,13,17,V,R,
568,64,22,13,4,53,27,550,['c'],1,left,['3'],4,267,[0.18273682],99,53,easy,minus,dotcolour,beta,,,13,17,V,R,
569,65,23,13,4,36,44,701,['n'],1,right,['3'],4,758,[0.01199846],20,44,hard,minus,dotcolour,beta,,,13,17,V,R,
570,66,24,13,4,47,33,800,['c'],1,left,['3'],4,201,[0.1745896],99,47,medium,minus,dotcolour,beta,,,13,17,V,R,
571,67,25,13,4,27,53,700,['n'],1,right,['2'],5,295,[-0.20909945],99,53,easy,minus,dotcolour,beta,,,13,17,V,R,
572,68,26,13,4,47,33,750,['c'],1,left,['3'],4,190,[0.04612548],40,47,medium,minus,dotcolour,beta,,,13,17,V,R,
573,69,27,13,4,53,27,849,['c'],1,left,['3'],4,351,[0.14182896],93,53,easy,minus,dotcolour,beta,,,13,17,V,R,
574,70,28,13,4,27,53,650,['n'],1,right,['3'],4,160,[-0.07223589],68,53,easy,minus,dotcolour,beta,,,13,17,V,R,
575,71,29,13,4,44,36,1000,['c'],1,left,['3'],4,507,[0.05834432],52,44,hard,minus,dotcolour,beta,,,13,17,V,R,
576,72,30,13,4,44,36,1349,['n'],0,left,['3'],4,298,[0.02389811],7,44,hard,minus,dotcolour,beta,,,13,17,V,R,
577,73,31,13,4,44,36,783,['n'],0,left,['9'],2,504,[-0.03791772],39,44,hard,minus,dotcolour,beta,,,13,17,V,R,
578,74,32,13,4,33,47,900,['c'],0,right,['2'],5,338,[0.02995257],31,47,medium,minus,dotcolour,beta,,,13,17,V,R,
579,75,33,13,4,44,36,850,['c'],1,left,['2'],5,284,[0.06407097],57,44,hard,minus,dotcolour,beta,,,13,17,V,R,
580,76,34,13,4,27,53,750,['n'],1,right,['2'],5,307,[-0.07076363],62,53,easy,minus,dotcolour,beta,,,13,17,V,R,
581,77,35,13,4,44,36,783,['c'],1,left,['3'],4,241,[0.10416118],86,44,hard,minus,dotcolour,beta,,,13,17,V,R,
582,78,36,13,4,53,27,649,['c'],1,left,['2'],5,294,[0.09753716],80,53,easy,minus,dotcolour,beta,,,13,17,V,R,
583,79,37,13,4,33,47,983,['n'],1,right,['3'],4,317,[-0.05922752],53,47,medium,minus,dotcolour,beta,,,13,17,V,R,
584,80,38,13,4,44,36,834,['c'],1,left,['2'],5,248,[0.10292943],85,44,hard,minus,dotcolour,beta,,,13,17,V,R,
585,81,39,13,4,47,33,867,['c'],1,left,['2'],5,1070,[0.14332051],82,47,medium,minus,dotcolour,beta,,,13,17,V,R,
586,82,40,13,4,36,44,584,['n'],1,right,['3'],4,284,[-0.12026672],90,44,hard,minus,dotcolour,beta,,,13,17,V,R,
587,83,41,13,4,33,47,767,['c'],0,right,['3'],4,292,[-0.04604961],3,47,medium,minus,dotcolour,beta,,,13,17,V,R,
588,84,0,14,4,44,36,968,['c'],1,left,['2'],5,467,[0.12363],86,44,hard,minus,dotcolour,beta,,,13,17,V,R,
589,85,1,14,4,36,44,1000,['n'],1,right,['8'],3,674,[-0.14032769],87,44,hard,minus,dotcolour,beta,,,13,17,V,R,
590,86,2,14,4,53,27,783,['c'],1,left,['2'],5,265,[0.04936985],45,53,easy,minus,dotcolour,beta,,,13,17,V,R,
591,87,3,14,4,33,47,750,['n'],1,right,['2'],5,458,[-0.11370443],82,47,medium,minus,dotcolour,beta,,,13,17,V,R,
592,88,4,14,4,36,44,800,['c'],0,right,['3'],4,152,[0.0682381],64,44,hard,minus,dotcolour,beta,,,13,17,V,R,
593,89,5,14,4,53,27,651,['c'],1,left,['2'],5,338,[0.05686828],51,53,easy,minus,dotcolour,beta,,,13,17,V,R,
594,90,6,14,4,44,36,666,['c'],1,left,['3'],4,180,[0.15300443],98,44,hard,minus,dotcolour,beta,,,13,17,V,R,
595,91,7,14,4,36,44,1401,['n'],1,right,['9'],2,278,[-0.04698498],43,44,hard,minus,dotcolour,beta,,,13,17,V,R,
596,92,8,14,4,44,36,816,['c'],1,left,['3'],4,596,[0.12634637],84,44,hard,minus,dotcolour,beta,,,13,17,V,R,
597,93,9,14,4,33,47,850,['n'],1,right,['3'],4,236,[-0.0682073],62,47,medium,minus,dotcolour,beta,,,13,17,V,R,
598,94,10,14,4,44,36,650,['c'],1,left,['2'],5,354,[0.16008712],96,44,hard,minus,dotcolour,beta,,,13,17,V,R,
599,95,11,14,4,27,53,800,['n'],1,right,['2'],5,854,[-0.18695524],93,53,easy,minus,dotcolour,beta,,,13,17,V,R,
600,96,12,14,4,47,33,850,['c'],1,left,['2'],5,259,[0.0716735],64,47,medium,minus,dotcolour,beta,,,13,17,V,R,
601,97,13,14,4,53,27,966,['c'],1,left,['2'],5,523,[0.06916051],58,53,easy,minus,dotcolour,beta,,,13,17,V,R,
602,98,14,14,4,44,36,817,['c'],1,left,['3'],4,215,[0.12209866],93,44,hard,minus,dotcolour,beta,,,13,17,V,R,
603,99,15,14,4,47,33,983,['c'],1,left,['1'],6,384,[0.13519741],91,47,medium,minus,dotcolour,beta,,,13,17,V,R,
604,100,16,14,4,33,47,1034,['c'],0,right,['3'],4,385,[0.08672647],71,47,medium,minus,dotcolour,beta,,,13,17,V,R,
605,101,17,14,4,36,44,784,['n'],1,right,['9'],2,1429,[-0.21384711],92,44,hard,minus,dotcolour,beta,,,13,17,V,R,
606,102,18,14,4,36,44,816,['c'],0,right,['3'],4,324,[-0.02705891],7,44,hard,minus,dotcolour,beta,,,13,17,V,R,
607,103,19,14,4,47,33,683,['c'],1,left,['2'],5,269,[0.10443365],85,47,medium,minus,dotcolour,beta,,,13,17,V,R,
608,104,20,14,4,33,47,599,['n'],1,right,['2'],5,844,[-0.10159314],71,47,medium,minus,dotcolour,beta,,,13,17,V,R,
609,105,21,14,4,36,44,916,['c'],0,right,['3'],4,623,[-0.02760508],13,44,hard,minus,dotcolour,beta,,,13,17,V,R,
610,106,22,14,4,44,36,1000,['c'],1,left,['2'],5,199,[-0.02412987],4,44,hard,minus,dotcolour,beta,,,13,17,V,R,
611,107,23,14,4,53,27,1333,['c'],1,left,['2'],5,235,[0.1236234],93,53,easy,minus,dotcolour,beta,,,13,17,V,R,
612,108,24,14,4,53,27,617,['c'],1,left,['3'],4,283,[0.16072977],97,53,easy,minus,dotcolour,beta,,,13,17,V,R,
613,109,25,14,4,47,33,767,['c'],1,left,['3'],4,203,[0.13505026],96,47,medium,minus,dotcolour,beta,,,13,17,V,R,
614,110,26,14,4,33,47,751,['n'],1,right,['8'],3,1078,[-0.07169303],57,47,medium,minus,dotcolour,beta,,,13,17,V,R,
615,111,27,14,4,47,33,784,['c'],1,left,['3'],4,197,[0.11057705],90,47,medium,minus,dotcolour,beta,,,13,17,V,R,
616,112,28,14,4,27,53,1183,['n'],1,right,['2'],5,856,[-0.21408972],96,53,easy,minus,dotcolour,beta,,,13,17,V,R,
617,113,29,14,4,27,53,749,['n'],1,right,['1'],6,249,[-0.11694464],90,53,easy,minus,dotcolour,beta,,,13,17,V,R,
618,114,30,14,4,27,53,1200,['c'],0,right,['3'],4,280,[-0.00266149],12,53,easy,minus,dotcolour,beta,,,13,17,V,R,
619,115,31,14,4,33,47,650,['n'],1,right,['2'],5,317,[-0.00398735],16,47,medium,minus,dotcolour,beta,,,13,17,V,R,
620,116,32,14,4,53,27,783,['c'],1,left,['2'],5,194,[0.08363344],76,53,easy,minus,dotcolour,beta,,,13,17,V,R,
621,117,33,14,4,36,44,799,['n'],1,right,['9'],2,820,[-0.18234346],93,44,hard,minus,dotcolour,beta,,,13,17,V,R,
622,118,34,14,4,53,27,700,['c'],1,left,['2'],5,216,[0.132031],95,53,easy,minus,dotcolour,beta,,,13,17,V,R,
623,119,35,14,4,33,47,1151,['n'],1,right,['3'],4,1148,[-0.20808079],93,47,medium,minus,dotcolour,beta,,,13,17,V,R,
624,120,36,14,4,27,53,749,['n'],1,right,['2'],5,265,[-0.14604023],96,53,easy,minus,dotcolour,beta,,,13,17,V,R,
625,121,37,14,4,47,33,734,['c'],1,left,['2'],5,267,[0.08038597],70,47,medium,minus,dotcolour,beta,,,13,17,V,R,
626,122,38,14,4,27,53,683,['n'],1,right,['2'],5,262,[-0.04459654],40,53,easy,minus,dotcolour,beta,,,13,17,V,R,
627,123,39,14,4,47,33,834,['c'],1,left,['2'],5,179,[0.05298564],47,47,medium,minus,dotcolour,beta,,,13,17,V,R,
628,124,40,14,4,27,53,867,['n'],1,right,['3'],4,883,[-0.14504752],85,53,easy,minus,dotcolour,beta,,,13,17,V,R,
629,125,41,14,4,44,36,767,['c'],1,left,['3'],4,299,[0.08795005],74,44,hard,minus,dotcolour,beta,,,13,17,V,R,
630,0,0,15,5,47,33,1484,['c'],1,left,['3'],4,280,[0.08478913],99,47,medium,plus,dotcolour,beta,,,13,17,V,R,
631,1,1,15,5,36,44,934,['n'],1,right,['3'],4,257,[-0.00351529],89,44,hard,plus,dotcolour,beta,,,13,17,V,R,
632,2,2,15,5,44,36,783,['c'],1,left,['3'],4,281,[0.05782531],98,44,hard,plus,dotcolour,beta,,,13,17,V,R,
633,3,3,15,5,44,36,733,['c'],1,left,['8'],3,1154,[0.22887227],99,44,hard,plus,dotcolour,beta,,,13,17,V,R,
634,4,4,15,5,36,44,916,['n'],1,right,['3'],4,320,[-0.16534831],100,44,hard,plus,dotcolour,beta,,,13,17,V,R,
635,5,5,15,5,27,53,1100,['n'],1,right,['2'],5,281,[-0.12090887],100,53,easy,plus,dotcolour,beta,,,13,17,V,R,
636,6,6,15,5,36,44,1234,['c'],0,right,['3'],4,302,[0.00538556],88,44,hard,plus,dotcolour,beta,,,13,17,V,R,
637,7,7,15,5,53,27,600,['c'],1,left,['3'],4,236,[0.08013773],99,53,easy,plus,dotcolour,beta,,,13,17,V,R,
638,8,8,15,5,44,36,883,['c'],1,left,['2'],5,281,[0.10919466],100,44,hard,plus,dotcolour,beta,,,13,17,V,R,
639,9,9,15,5,47,33,600,['c'],1,left,['1'],6,263,[0.12360797],100,47,medium,plus,dotcolour,beta,,,13,17,V,R,
640,10,10,15,5,27,53,767,['n'],1,right,['3'],4,912,[0.01065627],70,53,easy,plus,dotcolour,beta,,,13,17,V,R,
641,11,11,15,5,44,36,684,['c'],1,left,['2'],5,233,[0.05199373],98,44,hard,plus,dotcolour,beta,,,13,17,V,R,
642,12,12,15,5,53,27,767,['c'],1,left,['2'],5,203,[0.10451368],100,53,easy,plus,dotcolour,beta,,,13,17,V,R,
643,13,13,15,5,53,27,1400,['c'],1,left,['2'],5,372,[0.13693807],100,53,easy,plus,dotcolour,beta,,,13,17,V,R,
644,14,14,15,5,36,44,1167,['n'],1,right,['9'],2,976,[-0.15707189],98,44,hard,plus,dotcolour,beta,,,13,17,V,R,
645,15,15,15,5,36,44,783,['c'],0,right,['2'],5,572,[-0.11241052],21,44,hard,plus,dotcolour,beta,,,13,17,V,R,
646,16,16,15,5,53,27,700,['c'],1,left,['2'],5,378,[0.10019114],99,53,easy,plus,dotcolour,beta,,,13,17,V,R,
647,17,17,15,5,36,44,766,['n'],1,right,['2'],5,573,[-0.21617182],100,44,hard,plus,dotcolour,beta,,,13,17,V,R,
648,18,18,15,5,27,53,1117,['c'],0,right,['3'],4,539,[-0.06219406],46,53,easy,plus,dotcolour,beta,,,13,17,V,R,
649,19,19,15,5,33,47,633,['n'],1,right,['3'],4,758,[-0.083995],95,47,medium,plus,dotcolour,beta,,,13,17,V,R,
650,20,20,15,5,47,33,916,['c'],1,left,['3'],4,932,[0.37622739],100,47,medium,plus,dotcolour,beta,,,13,17,V,R,
651,21,21,15,5,53,27,584,['c'],1,left,['3'],4,1073,[0.29036571],100,53,easy,plus,dotcolour,beta,,,13,17,V,R,
652,22,22,15,5,33,47,1783,['n'],1,right,['3'],4,264,[-0.16541077],100,47,medium,plus,dotcolour,beta,,,13,17,V,R,
653,23,23,15,5,27,53,767,['n'],1,right,['2'],5,441,[-0.07019879],97,53,easy,plus,dotcolour,beta,,,13,17,V,R,
654,24,24,15,5,33,47,1016,['n'],1,right,['3'],4,472,[-0.17424021],100,47,medium,plus,dotcolour,beta,,,13,17,V,R,
655,25,25,15,5,33,47,1216,['c'],0,right,['3'],4,342,[0.06150126],97,47,medium,plus,dotcolour,beta,,,13,17,V,R,
656,26,26,15,5,33,47,1284,['c'],0,right,['3'],4,214,[-0.00971781],86,47,medium,plus,dotcolour,beta,,,13,17,V,R,
657,27,27,15,5,33,47,800,['c'],0,right,['2'],5,319,[0.10718005],99,47,medium,plus,dotcolour,beta,,,13,17,V,R,
658,28,28,15,5,47,33,933,['c'],1,left,['3'],4,327,[0.08771015],99,47,medium,plus,dotcolour,beta,,,13,17,V,R,
659,29,29,15,5,53,27,784,['c'],1,left,['1'],6,236,[0.09010786],100,53,easy,plus,dotcolour,beta,,,13,17,V,R,
660,30,30,15,5,33,47,1067,['n'],1,right,['3'],4,218,[-0.20418825],100,47,medium,plus,dotcolour,beta,,,13,17,V,R,
661,31,31,15,5,44,36,1250,['c'],1,left,['3'],4,257,[0.1015543],100,44,hard,plus,dotcolour,beta,,,13,17,V,R,
662,32,32,15,5,47,33,650,['c'],1,left,['2'],5,230,[0.05017409],98,47,medium,plus,dotcolour,beta,,,13,17,V,R,
663,33,33,15,5,44,36,617,['c'],1,left,['2'],5,309,[0.10298278],99,44,hard,plus,dotcolour,beta,,,13,17,V,R,
664,34,34,15,5,44,36,584,['c'],1,left,['9'],2,907,[0.17024247],99,44,hard,plus,dotcolour,beta,,,13,17,V,R,
665,35,35,15,5,27,53,650,['n'],1,right,['3'],4,302,[-0.087474],99,53,easy,plus,dotcolour,beta,,,13,17,V,R,
666,36,36,15,5,47,33,733,['c'],1,left,['3'],4,183,[0.12327025],100,47,medium,plus,dotcolour,beta,,,13,17,V,R,
667,37,37,15,5,27,53,1049,['n'],1,right,['3'],4,287,[-0.20748433],100,53,easy,plus,dotcolour,beta,,,13,17,V,R,
668,38,38,15,5,27,53,1100,['c'],0,right,['2'],5,169,[0.08672861],100,53,easy,plus,dotcolour,beta,,,13,17,V,R,
669,39,39,15,5,53,27,783,['c'],1,left,['1'],6,133,[0.07802132],100,53,easy,plus,dotcolour,beta,,,13,17,V,R,
670,40,40,15,5,47,33,950,['n'],0,left,['9'],2,499,[0.04507339],57,47,medium,plus,dotcolour,beta,,,13,17,V,R,
671,41,41,15,5,36,44,917,['c'],0,right,['3'],4,228,[0.11295977],100,44,hard,plus,dotcolour,beta,,,13,17,V,R,
672,42,0,16,5,33,47,1233,['c'],0,right,['3'],4,209,[0.10340095],100,47,medium,plus,dotcolour,beta,,,13,17,V,R,
673,43,1,16,5,44,36,749,['c'],1,left,['2'],5,260,[0.11998024],100,44,hard,plus,dotcolour,beta,,,13,17,V,R,
674,44,2,16,5,33,47,700,['n'],1,right,['3'],4,367,[-0.11086469],99,47,medium,plus,dotcolour,beta,,,13,17,V,R,
675,45,3,16,5,33,47,1917,['n'],1,right,['3'],4,773,[0.04683628],54,47,medium,plus,dotcolour,beta,,,13,17,V,R,
676,46,4,16,5,44,36,767,['c'],1,left,['8'],3,392,[0.05652578],96,44,hard,plus,dotcolour,beta,,,13,17,V,R,
677,47,5,16,5,33,47,783,['c'],0,right,['3'],4,395,[0.00747808],86,47,medium,plus,dotcolour,beta,,,13,17,V,R,
678,48,6,16,5,36,44,700,['c'],0,right,['3'],4,200,[0.00619229],92,44,hard,plus,dotcolour,beta,,,13,17,V,R,
679,49,7,16,5,44,36,533,['n'],0,left,['0'],1,2213,[-0.095806],86,44,hard,plus,dotcolour,beta,,,13,17,V,R,
680,50,8,16,5,53,27,767,['c'],1,left,['1'],6,270,[0.13919156],100,53,easy,plus,dotcolour,beta,,,13,17,V,R,
681,51,9,16,5,53,27,1301,['c'],1,left,['2'],5,282,[0.14979423],100,53,easy,plus,dotcolour,beta,,,13,17,V,R,
682,52,10,16,5,47,33,782,['c'],1,left,['2'],5,569,[0.21406146],100,47,medium,plus,dotcolour,beta,,,13,17,V,R,
683,53,11,16,5,33,47,817,['c'],0,right,['3'],4,290,[0.03621687],96,47,medium,plus,dotcolour,beta,,,13,17,V,R,
684,54,12,16,5,27,53,967,['n'],1,right,['3'],4,729,[-0.11233958],97,53,easy,plus,dotcolour,beta,,,13,17,V,R,
685,55,13,16,5,33,47,1250,['n'],1,right,['3'],4,340,[-0.06982255],98,47,medium,plus,dotcolour,beta,,,13,17,V,R,
686,56,14,16,5,36,44,966,['n'],1,right,['3'],4,305,[-0.18423632],100,44,hard,plus,dotcolour,beta,,,13,17,V,R,
687,57,15,16,5,36,44,700,['n'],1,right,['3'],4,250,[-0.08590416],99,44,hard,plus,dotcolour,beta,,,13,17,V,R,
688,58,16,16,5,36,44,901,['c'],0,right,['3'],4,470,[0.13612402],99,44,hard,plus,dotcolour,beta,,,13,17,V,R,
689,59,17,16,5,36,44,1150,['n'],1,right,['3'],4,255,[-0.13970402],100,44,hard,plus,dotcolour,beta,,,13,17,V,R,
690,60,18,16,5,44,36,850,['c'],1,left,['3'],4,661,[0.14364261],99,44,hard,plus,dotcolour,beta,,,13,17,V,R,
691,61,19,16,5,27,53,767,['n'],1,right,['2'],5,381,[-0.10411746],99,53,easy,plus,dotcolour,beta,,,13,17,V,R,
692,62,20,16,5,53,27,700,['c'],1,left,['2'],5,195,[0.15294621],100,53,easy,plus,dotcolour,beta,,,13,17,V,R,
693,63,21,16,5,27,53,1401,['n'],1,right,['3'],4,1053,[-0.20369734],99,53,easy,plus,dotcolour,beta,,,13,17,V,R,
694,64,22,16,5,27,53,767,['n'],1,right,['1'],6,237,[-0.09695941],100,53,easy,plus,dotcolour,beta,,,13,17,V,R,
695,65,23,16,5,44,36,784,['c'],1,left,['2'],5,375,[0.06166515],97,44,hard,plus,dotcolour,beta,,,13,17,V,R,
696,66,24,16,5,47,33,883,['c'],1,left,['3'],4,494,[0.10851066],99,47,medium,plus,dotcolour,beta,,,13,17,V,R,
697,67,25,16,5,27,53,617,['n'],1,right,['2'],5,595,[-0.19107056],100,53,easy,plus,dotcolour,beta,,,13,17,V,R,
698,68,26,16,5,44,36,1000,['c'],1,left,['3'],4,260,[0.07811932],99,44,hard,plus,dotcolour,beta,,,13,17,V,R,
699,69,27,16,5,47,33,767,['c'],1,left,['3'],4,261,[0.03243144],96,47,medium,plus,dotcolour,beta,,,13,17,V,R,
700,70,28,16,5,53,27,734,['c'],1,left,['2'],5,222,[0.17877158],100,53,easy,plus,dotcolour,beta,,,13,17,V,R,
701,71,29,16,5,47,33,1066,['n'],0,left,['3'],4,349,[-0.01021135],88,47,medium,plus,dotcolour,beta,,,13,17,V,R,
702,72,30,16,5,53,27,767,['c'],1,left,['2'],5,145,[0.17699055],100,53,easy,plus,dotcolour,beta,,,13,17,V,R,
703,73,31,16,5,27,53,800,['n'],1,right,['2'],5,429,[-0.11410049],99,53,easy,plus,dotcolour,beta,,,13,17,V,R,
704,74,32,16,5,33,47,1267,['n'],1,right,['2'],5,627,[-0.14970081],99,47,medium,plus,dotcolour,beta,,,13,17,V,R,
705,75,33,16,5,47,33,817,['c'],1,left,['1'],6,523,[0.13267808],99,47,medium,plus,dotcolour,beta,,,13,17,V,R,
706,76,34,16,5,53,27,833,['c'],1,left,['1'],6,182,[0.11101041],100,53,easy,plus,dotcolour,beta,,,13,17,V,R,
707,77,35,16,5,47,33,1200,['c'],1,left,['2'],5,192,[0.07065037],99,47,medium,plus,dotcolour,beta,,,13,17,V,R,
708,78,36,16,5,27,53,883,['n'],1,right,['2'],5,815,[-0.34008095],100,53,easy,plus,dotcolour,beta,,,13,17,V,R,
709,79,37,16,5,47,33,999,['c'],1,left,['3'],4,207,[0.08648819],100,47,medium,plus,dotcolour,beta,,,13,17,V,R,
710,80,38,16,5,36,44,867,['c'],0,right,['3'],4,205,[0.08973248],100,44,hard,plus,dotcolour,beta,,,13,17,V,R,
711,81,39,16,5,44,36,1451,['n'],0,left,['2'],5,653,[-0.17996894],99,44,hard,plus,dotcolour,beta,,,13,17,V,R,
712,82,40,16,5,36,44,1133,['c'],0,right,['3'],4,151,[0.08432051],100,44,hard,plus,dotcolour,beta,,,13,17,V,R,
713,83,41,16,5,53,27,600,['c'],1,left,['2'],5,171,[0.08362076],100,53,easy,plus,dotcolour,beta,,,13,17,V,R,
714,84,0,17,5,36,44,800,['n'],1,right,['2'],5,499,[-0.10750765],98,44,hard,plus,dotcolour,beta,,,13,17,V,R,
715,85,1,17,5,44,36,1017,['c'],1,left,['2'],5,184,[0.02080096],96,44,hard,plus,dotcolour,beta,,,13,17,V,R,
716,86,2,17,5,27,53,734,['n'],1,right,['2'],5,197,[-0.11639435],100,53,easy,plus,dotcolour,beta,,,13,17,V,R,
717,87,3,17,5,47,33,833,['c'],1,left,['2'],5,301,[-0.05594541],50,47,medium,plus,dotcolour,beta,,,13,17,V,R,
718,88,4,17,5,36,44,1050,['c'],0,right,['3'],4,216,[0.05066707],98,44,hard,plus,dotcolour,beta,,,13,17,V,R,
719,89,5,17,5,53,27,884,['c'],1,left,['2'],5,326,[0.09304947],99,53,easy,plus,dotcolour,beta,,,13,17,V,R,
720,90,6,17,5,53,27,684,['c'],1,left,['1'],6,279,[0.0932918],99,53,easy,plus,dotcolour,beta,,,13,17,V,R,
721,91,7,17,5,47,33,933,['c'],1,left,['3'],4,280,[0.08214858],99,47,medium,plus,dotcolour,beta,,,13,17,V,R,
722,92,8,17,5,33,47,1233,['n'],1,right,['3'],4,165,[-0.11018666],100,47,medium,plus,dotcolour,beta,,,13,17,V,R,
723,93,9,17,5,47,33,800,['c'],1,left,['3'],4,152,[0.04244135],99,47,medium,plus,dotcolour,beta,,,13,17,V,R,
724,94,10,17,5,47,33,733,['c'],1,left,['2'],5,198,[0.13245398],100,47,medium,plus,dotcolour,beta,,,13,17,V,R,
725,95,11,17,5,27,53,784,['n'],1,right,['3'],4,449,[-0.33552241],100,53,easy,plus,dotcolour,beta,,,13,17,V,R,
726,96,12,17,5,27,53,1000,['n'],1,right,['3'],4,392,[-0.06963175],97,53,easy,plus,dotcolour,beta,,,13,17,V,R,
727,97,13,17,5,53,27,783,['c'],1,left,['1'],6,650,[0.156582],99,53,easy,plus,dotcolour,beta,,,13,17,V,R,
728,98,14,17,5,27,53,717,['n'],1,right,['2'],5,237,[-0.0825529],99,53,easy,plus,dotcolour,beta,,,13,17,V,R,
729,99,15,17,5,53,27,683,['c'],1,left,['2'],5,218,[0.12308472],100,53,easy,plus,dotcolour,beta,,,13,17,V,R,
730,100,16,17,5,27,53,683,['n'],1,right,['2'],5,423,[-0.14266867],100,53,easy,plus,dotcolour,beta,,,13,17,V,R,
731,101,17,17,5,44,36,1101,['c'],1,left,['3'],4,260,[0.00728256],90,44,hard,plus,dotcolour,beta,,,13,17,V,R,
732,102,18,17,5,53,27,800,['c'],1,left,['2'],5,307,[0.04701908],97,53,easy,plus,dotcolour,beta,,,13,17,V,R,
733,103,19,17,5,27,53,1334,['n'],1,right,['8'],3,627,[-0.20468796],100,53,easy,plus,dotcolour,beta,,,13,17,V,R,
734,104,20,17,5,44,36,600,['c'],1,left,['3'],4,211,[0.10112004],100,44,hard,plus,dotcolour,beta,,,13,17,V,R,
735,105,21,17,5,44,36,566,['c'],1,left,['2'],5,229,[-0.00365861],88,44,hard,plus,dotcolour,beta,,,13,17,V,R,
736,106,22,17,5,33,47,734,['n'],1,right,['3'],4,392,[-0.2571868],100,47,medium,plus,dotcolour,beta,,,13,17,V,R,
737,107,23,17,5,36,44,683,['c'],0,right,['3'],4,311,[-0.01890663],77,44,hard,plus,dotcolour,beta,,,13,17,V,R,
738,108,24,17,5,44,36,550,['c'],1,left,['2'],5,277,[0.06782814],99,44,hard,plus,dotcolour,beta,,,13,17,V,R,
739,109,25,17,5,44,36,732,['c'],1,left,['3'],4,198,[0.06261721],99,44,hard,plus,dotcolour,beta,,,13,17,V,R,
740,110,26,17,5,33,47,850,['n'],1,right,['3'],4,742,[-0.06873929],93,47,medium,plus,dotcolour,beta,,,13,17,V,R,
741,111,27,17,5,47,33,700,['c'],1,left,['3'],4,110,[0.09879552],100,47,medium,plus,dotcolour,beta,,,13,17,V,R,
742,112,28,17,5,36,44,766,['n'],1,right,['8'],3,629,[-0.17100746],99,44,hard,plus,dotcolour,beta,,,13,17,V,R,
743,113,29,17,5,33,47,783,['c'],0,right,['9'],2,709,[-0.05102294],52,47,medium,plus,dotcolour,beta,,,13,17,V,R,
744,114,30,17,5,47,33,767,['c'],1,left,['3'],4,635,[0.2781191],100,47,medium,plus,dotcolour,beta,,,13,17,V,R,
745,115,31,17,5,33,47,634,['c'],0,right,['3'],4,250,[0.06209909],99,47,medium,plus,dotcolour,beta,,,13,17,V,R,
746,116,32,17,5,53,27,1117,['c'],1,left,['8'],3,2574,[0.24167378],97,53,easy,plus,dotcolour,beta,,,13,17,V,R,
747,117,33,17,5,36,44,700,['n'],1,right,['3'],4,228,[-0.10221473],100,44,hard,plus,dotcolour,beta,,,13,17,V,R,
748,118,34,17,5,33,47,666,['n'],1,right,['2'],5,361,[-0.12493014],100,47,medium,plus,dotcolour,beta,,,13,17,V,R,
749,119,35,17,5,47,33,932,['c'],1,left,['3'],4,231,[0.06311227],99,47,medium,plus,dotcolour,beta,,,13,17,V,R,
750,120,36,17,5,44,36,750,['c'],1,left,['3'],4,193,[0.01009361],94,44,hard,plus,dotcolour,beta,,,13,17,V,R,
751,121,37,17,5,53,27,683,['c'],1,left,['2'],5,271,[0.10894987],100,53,easy,plus,dotcolour,beta,,,13,17,V,R,
752,122,38,17,5,33,47,883,['n'],1,right,['3'],4,259,[-0.09946316],100,47,medium,plus,dotcolour,beta,,,13,17,V,R,
753,123,39,17,5,36,44,1233,['n'],1,right,['3'],4,209,[-0.08325881],100,44,hard,plus,dotcolour,beta,,,13,17,V,R,
754,124,40,17,5,27,53,667,['n'],1,right,['2'],5,231,[-0.14001991],100,53,easy,plus,dotcolour,beta,,,13,17,V,R,
755,125,41,17,5,36,44,851,['c'],0,right,['2'],5,261,[0.07709429],99,44,hard,plus,dotcolour,beta,,,13,17,V,R,
,,,,,,,,,,,,,,,,,,,,,1,soms dacht ik juist te zijn maar was het toch fout,13,17,V,R,
,,,,,,,,,,,,,,,,,,,,,2,['f'],13,17,V,R,
,,,,,,,,,,,,,,,,,,,,,3,['g'],13,17,V,R,
,,,,,,,,,,,,,,,,,,,,,5,[],13,17,V,R,
