trial,withinphasetrial,withinblocktrial,block,phase,dotsLeft,dotsRight,rt,resp,cor,cresp,conf_press,cj,RTconf,ev,fb,diff,difflevel,condition,task,manip,questionID,questionResp,sub,age,gender,handedness,
0,0,0,0,0,36,44,1933,['n'],1,right,['8'],3,3211,[-0.22463323],76,44,hard,minus,dotcolour,alfa,,,129,18,M,R,
1,1,1,0,0,33,47,932,['n'],1,right,['1'],6,2356,[-0.24526292],81,47,medium,minus,dotcolour,alfa,,,129,18,M,R,
2,2,2,0,0,44,36,2917,['n'],0,left,['1'],6,1145,[-0.00647262],51,44,hard,minus,dotcolour,alfa,,,129,18,M,R,
3,3,3,0,0,53,27,2552,['c'],1,left,['1'],6,1335,[0.18895626],81,53,easy,minus,dotcolour,alfa,,,129,18,M,R,
4,4,4,0,0,53,27,1950,['c'],1,left,['1'],6,588,[0.0621223],67,53,easy,minus,dotcolour,alfa,,,129,18,M,R,
5,5,5,0,0,27,53,1867,['n'],1,right,['1'],6,1147,[-0.22439739],87,53,easy,minus,dotcolour,alfa,,,129,18,M,R,
6,6,6,0,0,53,27,2166,['c'],1,left,['3'],4,2304,[0.48754372],95,53,easy,minus,dotcolour,alfa,,,129,18,M,R,
7,7,7,0,0,44,36,2133,['n'],0,left,['8'],3,1743,[-0.20993499],81,44,hard,minus,dotcolour,alfa,,,129,18,M,R,
8,8,8,0,0,33,47,2317,['n'],1,right,['1'],6,2605,[-0.46927154],93,47,medium,minus,dotcolour,alfa,,,129,18,M,R,
9,9,9,0,0,47,33,1433,['c'],1,left,['1'],6,660,[0.12536729],80,47,medium,minus,dotcolour,alfa,,,129,18,M,R,
10,10,10,0,0,36,44,1449,['n'],1,right,['1'],6,545,[-0.10327149],78,44,hard,minus,dotcolour,alfa,,,129,18,M,R,
11,11,11,0,0,36,44,834,['n'],1,right,['1'],6,251,[-0.00786529],54,44,hard,minus,dotcolour,alfa,,,129,18,M,R,
12,12,12,0,0,33,47,968,['n'],1,right,['1'],6,260,[-0.12796077],91,47,medium,minus,dotcolour,alfa,,,129,18,M,R,
13,13,13,0,0,27,53,917,['n'],1,right,['1'],6,213,[-0.09373137],86,53,easy,minus,dotcolour,alfa,,,129,18,M,R,
14,14,14,0,0,27,53,700,['n'],1,right,['1'],6,179,[-0.05473323],76,53,easy,minus,dotcolour,alfa,,,129,18,M,R,
15,15,15,0,0,47,33,1216,['n'],0,left,['1'],6,131,[-0.01049662],56,47,medium,minus,dotcolour,alfa,,,129,18,M,R,
16,16,16,0,0,47,33,1816,['c'],1,left,['1'],6,256,[0.05261675],72,47,medium,minus,dotcolour,alfa,,,129,18,M,R,
17,17,17,0,0,47,33,967,['c'],1,left,['1'],6,207,[0.11762885],91,47,medium,minus,dotcolour,alfa,,,129,18,M,R,
18,18,18,0,0,27,53,767,['n'],1,right,['1'],6,218,[-0.1483854],95,53,easy,minus,dotcolour,alfa,,,129,18,M,R,
19,19,19,0,0,44,36,1332,['n'],0,left,['8'],3,1605,[0.04628573],42,44,hard,minus,dotcolour,alfa,,,129,18,M,R,
20,20,20,0,0,33,47,817,['n'],1,right,['1'],6,148,[-0.05192187],77,47,medium,minus,dotcolour,alfa,,,129,18,M,R,
21,21,21,0,0,53,27,816,['c'],1,left,['1'],6,175,[0.04069372],71,53,easy,minus,dotcolour,alfa,,,129,18,M,R,
22,22,22,0,0,47,33,901,['c'],1,left,['1'],6,133,[0.04339638],74,47,medium,minus,dotcolour,alfa,,,129,18,M,R,
23,23,23,0,0,27,53,784,['n'],1,right,['1'],6,146,[-0.06323868],82,53,easy,minus,dotcolour,alfa,,,129,18,M,R,
24,24,24,0,0,33,47,852,['n'],1,right,['1'],6,155,[-0.14287686],96,47,medium,minus,dotcolour,alfa,,,129,18,M,R,
25,25,25,0,0,36,44,683,['n'],1,right,['1'],6,171,[-0.10917545],91,44,hard,minus,dotcolour,alfa,,,129,18,M,R,
26,26,26,0,0,53,27,1434,['c'],1,left,['3'],4,1124,[0.26575772],91,53,easy,minus,dotcolour,alfa,,,129,18,M,R,
27,27,27,0,0,36,44,750,['n'],1,right,['1'],6,354,[-0.10544656],83,44,hard,minus,dotcolour,alfa,,,129,18,M,R,
28,28,28,0,0,27,53,684,['n'],1,right,['1'],6,114,[-0.10342518],94,53,easy,minus,dotcolour,alfa,,,129,18,M,R,
29,29,29,0,0,36,44,633,['n'],1,right,['1'],6,117,[-0.0585057],82,44,hard,minus,dotcolour,alfa,,,129,18,M,R,
30,30,30,0,0,36,44,634,['n'],1,right,['1'],6,97,[-0.0836766],92,44,hard,minus,dotcolour,alfa,,,129,18,M,R,
31,31,31,0,0,44,36,2584,['c'],1,left,['8'],3,1190,[0.27352604],91,44,hard,minus,dotcolour,alfa,,,129,18,M,R,
32,32,32,0,0,33,47,817,['n'],1,right,['1'],6,143,[-0.10861946],93,47,medium,minus,dotcolour,alfa,,,129,18,M,R,
33,33,33,0,0,53,27,866,['c'],1,left,['1'],6,168,[0.06353801],80,53,easy,minus,dotcolour,alfa,,,129,18,M,R,
34,34,34,0,0,44,36,850,['c'],1,left,['1'],6,120,[0.05844904],82,44,hard,minus,dotcolour,alfa,,,129,18,M,R,
35,35,35,0,0,53,27,851,['c'],1,left,['1'],6,155,[0.08304417],87,53,easy,minus,dotcolour,alfa,,,129,18,M,R,
36,36,36,0,0,27,53,783,['n'],1,right,['1'],6,119,[-0.04807323],78,53,easy,minus,dotcolour,alfa,,,129,18,M,R,
37,37,37,0,0,44,36,866,['c'],1,left,['1'],6,161,[0.07325958],84,44,hard,minus,dotcolour,alfa,,,129,18,M,R,
38,38,38,0,0,44,36,834,['c'],1,left,['1'],6,146,[0.08020625],87,44,hard,minus,dotcolour,alfa,,,129,18,M,R,
39,39,39,0,0,47,33,867,['n'],0,left,['1'],6,100,[-0.03278385],72,47,medium,minus,dotcolour,alfa,,,129,18,M,R,
40,40,40,0,0,33,47,2685,['n'],1,right,['9'],2,2189,[-0.61726593],98,47,medium,minus,dotcolour,alfa,,,129,18,M,R,
41,41,41,0,0,47,33,833,['c'],1,left,['1'],6,181,[0.1440129],95,47,medium,minus,dotcolour,alfa,,,129,18,M,R,
42,42,0,1,0,53,27,2267,['c'],1,left,['1'],6,605,[0.17496102],88,53,easy,minus,dotcolour,alfa,,,129,18,M,R,
43,43,1,1,0,36,44,1050,['n'],1,right,['1'],6,268,[-0.12850644],90,44,hard,minus,dotcolour,alfa,,,129,18,M,R,
44,44,2,1,0,27,53,817,['n'],1,right,['1'],6,90,[-0.10875071],96,53,easy,minus,dotcolour,alfa,,,129,18,M,R,
45,45,3,1,0,47,33,1167,['n'],0,left,['1'],6,80,[-0.12345207],98,47,medium,minus,dotcolour,alfa,,,129,18,M,R,
46,46,4,1,0,33,47,650,['n'],1,right,['1'],6,133,[-0.08076775],88,47,medium,minus,dotcolour,alfa,,,129,18,M,R,
47,47,5,1,0,47,33,1150,['n'],0,left,['2'],5,1947,[0.02716392],46,47,medium,minus,dotcolour,alfa,,,129,18,M,R,
48,48,6,1,0,36,44,801,['n'],1,right,['1'],6,101,[-0.06081669],85,44,hard,minus,dotcolour,alfa,,,129,18,M,R,
49,49,7,1,0,36,44,683,['n'],1,right,['1'],6,103,[-0.05927906],84,44,hard,minus,dotcolour,alfa,,,129,18,M,R,
50,50,8,1,0,53,27,2950,['c'],1,left,['2'],5,1191,[0.20186038],84,53,easy,minus,dotcolour,alfa,,,129,18,M,R,
51,51,9,1,0,33,47,1034,['n'],1,right,['1'],6,102,[-0.0808635],91,47,medium,minus,dotcolour,alfa,,,129,18,M,R,
52,52,10,1,0,33,47,517,['n'],1,right,['1'],6,143,[-0.08263673],88,47,medium,minus,dotcolour,alfa,,,129,18,M,R,
53,53,11,1,0,36,44,650,['n'],1,right,['1'],6,96,[-0.10880421],96,44,hard,minus,dotcolour,alfa,,,129,18,M,R,
54,54,12,1,0,27,53,617,['n'],1,right,['1'],6,110,[-0.08620292],91,53,easy,minus,dotcolour,alfa,,,129,18,M,R,
55,55,13,1,0,27,53,650,['n'],1,right,['1'],6,96,[-0.05593576],84,53,easy,minus,dotcolour,alfa,,,129,18,M,R,
56,56,14,1,0,27,53,567,['n'],1,right,['1'],6,95,[-0.16158394],99,53,easy,minus,dotcolour,alfa,,,129,18,M,R,
57,57,15,1,0,36,44,634,['n'],1,right,['1'],6,138,[-0.09875873],92,44,hard,minus,dotcolour,alfa,,,129,18,M,R,
58,58,16,1,0,53,27,2384,['c'],1,left,['1'],6,183,[0.08883752],87,53,easy,minus,dotcolour,alfa,,,129,18,M,R,
59,59,17,1,0,47,33,716,['n'],0,left,['1'],6,204,[0.02150865],39,47,medium,minus,dotcolour,alfa,,,129,18,M,R,
60,60,18,1,0,33,47,3484,['c'],0,right,['9'],2,1515,[-0.0977241],33,47,medium,minus,dotcolour,alfa,,,129,18,M,R,
61,61,19,1,0,33,47,3099,['n'],1,right,['8'],3,1851,[-0.4941444],96,47,medium,minus,dotcolour,alfa,,,129,18,M,R,
62,62,20,1,0,53,27,1484,['c'],1,left,['1'],6,158,[0.07338337],84,53,easy,minus,dotcolour,alfa,,,129,18,M,R,
63,63,21,1,0,27,53,699,['n'],1,right,['1'],6,93,[-0.09622421],94,53,easy,minus,dotcolour,alfa,,,129,18,M,R,
64,64,22,1,0,44,36,2851,['c'],1,left,['8'],3,1936,[0.13019614],70,44,hard,minus,dotcolour,alfa,,,129,18,M,R,
65,65,23,1,0,44,36,1600,['c'],1,left,['1'],6,1147,[0.45263591],98,44,hard,minus,dotcolour,alfa,,,129,18,M,R,
66,66,24,1,0,47,33,1983,['n'],0,left,['1'],6,807,[0.03686668],41,47,medium,minus,dotcolour,alfa,,,129,18,M,R,
67,67,25,1,0,33,47,750,['n'],1,right,['1'],6,90,[-0.05207894],83,47,medium,minus,dotcolour,alfa,,,129,18,M,R,
68,68,26,1,0,53,27,917,['c'],1,left,['1'],6,123,[0.11927355],96,53,easy,minus,dotcolour,alfa,,,129,18,M,R,
69,69,27,1,0,36,44,852,['n'],1,right,['1'],6,53,[-0.07165718],94,44,hard,minus,dotcolour,alfa,,,129,18,M,R,
70,70,28,1,0,36,44,650,['n'],1,right,['1'],6,58,[-0.04915192],86,44,hard,minus,dotcolour,alfa,,,129,18,M,R,
71,71,29,1,0,47,33,849,['c'],1,left,['1'],6,87,[0.07885689],92,47,medium,minus,dotcolour,alfa,,,129,18,M,R,
72,72,30,1,0,27,53,668,['n'],1,right,['1'],6,58,[-0.04462259],84,53,easy,minus,dotcolour,alfa,,,129,18,M,R,
73,73,31,1,0,27,53,566,['n'],1,right,['1'],6,82,[-0.07965184],92,53,easy,minus,dotcolour,alfa,,,129,18,M,R,
74,74,32,1,0,44,36,917,['c'],1,left,['1'],6,147,[0.11448186],94,44,hard,minus,dotcolour,alfa,,,129,18,M,R,
75,75,33,1,0,44,36,799,['n'],0,left,['1'],6,71,[-0.05105892],85,44,hard,minus,dotcolour,alfa,,,129,18,M,R,
76,76,34,1,0,47,33,817,['c'],1,left,['1'],6,85,[0.06853616],89,47,medium,minus,dotcolour,alfa,,,129,18,M,R,
77,77,35,1,0,44,36,616,['c'],1,left,['1'],6,115,[0.00899069],56,44,hard,minus,dotcolour,alfa,,,129,18,M,R,
78,78,36,1,0,53,27,700,['c'],1,left,['1'],6,67,[0.12468185],99,53,easy,minus,dotcolour,alfa,,,129,18,M,R,
79,79,37,1,0,33,47,918,['n'],1,right,['1'],6,1029,[-0.01764709],54,47,medium,minus,dotcolour,alfa,,,129,18,M,R,
80,80,38,1,0,53,27,650,['n'],0,left,['0'],1,3555,[0.17452087],30,53,easy,minus,dotcolour,alfa,,,129,18,M,R,
81,81,39,1,0,44,36,3032,['c'],1,left,['1'],6,203,[0.14709051],95,44,hard,minus,dotcolour,alfa,,,129,18,M,R,
82,82,40,1,0,47,33,1683,['c'],1,left,['1'],6,137,[0.0358688],71,47,medium,minus,dotcolour,alfa,,,129,18,M,R,
83,83,41,1,0,44,36,1067,['c'],1,left,['1'],6,195,[0.06697242],80,44,hard,minus,dotcolour,alfa,,,129,18,M,R,
84,84,0,2,0,27,53,784,['n'],1,right,['1'],6,67,[-0.04621127],83,53,easy,minus,dotcolour,alfa,,,129,18,M,R,
85,85,1,2,0,44,36,1434,['c'],1,left,['1'],6,104,[0.12198287],97,44,hard,minus,dotcolour,alfa,,,129,18,M,R,
86,86,2,2,0,27,53,667,['n'],1,right,['1'],6,75,[-0.09334822],96,53,easy,minus,dotcolour,alfa,,,129,18,M,R,
87,87,3,2,0,44,36,867,['c'],1,left,['1'],6,94,[0.06828841],88,44,hard,minus,dotcolour,alfa,,,129,18,M,R,
88,88,4,2,0,47,33,1250,['c'],1,left,['1'],6,81,[0.12836319],98,47,medium,minus,dotcolour,alfa,,,129,18,M,R,
89,89,5,2,0,47,33,616,['c'],1,left,['1'],6,103,[0.04711627],79,47,medium,minus,dotcolour,alfa,,,129,18,M,R,
90,90,6,2,0,44,36,566,['c'],1,left,['1'],6,94,[0.03274081],72,44,hard,minus,dotcolour,alfa,,,129,18,M,R,
91,91,7,2,0,27,53,633,['n'],1,right,['1'],6,25,[-0.08879938],99,53,easy,minus,dotcolour,alfa,,,129,18,M,R,
92,92,8,2,0,47,33,783,['c'],1,left,['1'],6,83,[0.07599191],91,47,medium,minus,dotcolour,alfa,,,129,18,M,R,
93,93,9,2,0,36,44,750,['n'],1,right,['1'],6,35,[-0.05100074],92,44,hard,minus,dotcolour,alfa,,,129,18,M,R,
94,94,10,2,0,44,36,2367,['n'],0,left,['8'],3,1404,[-0.00795258],52,44,hard,minus,dotcolour,alfa,,,129,18,M,R,
95,95,11,2,0,53,27,917,['c'],1,left,['1'],6,87,[0.12740591],98,53,easy,minus,dotcolour,alfa,,,129,18,M,R,
96,96,12,2,0,33,47,701,['n'],1,right,['1'],6,33,[-0.0973565],99,47,medium,minus,dotcolour,alfa,,,129,18,M,R,
97,97,13,2,0,33,47,650,['n'],1,right,['1'],6,39,[-0.08670887],98,47,medium,minus,dotcolour,alfa,,,129,18,M,R,
98,98,14,2,0,53,27,716,['c'],1,left,['1'],6,51,[0.04187781],84,53,easy,minus,dotcolour,alfa,,,129,18,M,R,
99,99,15,2,0,53,27,717,['c'],1,left,['1'],6,85,[0.08574968],93,53,easy,minus,dotcolour,alfa,,,129,18,M,R,
100,100,16,2,0,53,27,716,['c'],1,left,['1'],6,255,[0.05865559],74,53,easy,minus,dotcolour,alfa,,,129,18,M,R,
101,101,17,2,0,47,33,1383,['c'],1,left,['1'],6,55,[0.10191365],98,47,medium,minus,dotcolour,alfa,,,129,18,M,R,
102,102,18,2,0,33,47,1267,['n'],1,right,['1'],6,84,[-0.08752104],94,47,medium,minus,dotcolour,alfa,,,129,18,M,R,
103,103,19,2,0,53,27,735,['c'],1,left,['1'],6,100,[0.09256985],93,53,easy,minus,dotcolour,alfa,,,129,18,M,R,
104,104,20,2,0,47,33,734,['c'],1,left,['1'],6,52,[0.09105346],97,47,medium,minus,dotcolour,alfa,,,129,18,M,R,
105,105,21,2,0,33,47,1217,['n'],1,right,['1'],6,59,[-0.07230584],94,47,medium,minus,dotcolour,alfa,,,129,18,M,R,
106,106,22,2,0,44,36,1050,['c'],1,left,['1'],6,63,[0.08688125],96,44,hard,minus,dotcolour,alfa,,,129,18,M,R,
107,107,23,2,0,36,44,767,['n'],1,right,['1'],6,64,[-0.08096869],95,44,hard,minus,dotcolour,alfa,,,129,18,M,R,
108,108,24,2,0,33,47,616,['n'],1,right,['1'],6,77,[-0.11368033],98,47,medium,minus,dotcolour,alfa,,,129,18,M,R,
109,109,25,2,0,27,53,717,['n'],1,right,['1'],6,55,[-0.07215511],94,53,easy,minus,dotcolour,alfa,,,129,18,M,R,
110,110,26,2,0,36,44,584,['n'],1,right,['1'],6,95,[-0.1031794],95,44,hard,minus,dotcolour,alfa,,,129,18,M,R,
111,111,27,2,0,27,53,650,['n'],1,right,['1'],6,98,[-0.08389546],92,53,easy,minus,dotcolour,alfa,,,129,18,M,R,
112,112,28,2,0,47,33,700,['c'],1,left,['1'],6,92,[0.08392741],92,47,medium,minus,dotcolour,alfa,,,129,18,M,R,
113,113,29,2,0,53,27,1300,['c'],1,left,['1'],6,197,[0.07012628],81,53,easy,minus,dotcolour,alfa,,,129,18,M,R,
114,114,30,2,0,44,36,867,['c'],1,left,['1'],6,84,[0.07414269],91,44,hard,minus,dotcolour,alfa,,,129,18,M,R,
115,115,31,2,0,36,44,684,['n'],1,right,['1'],6,94,[-0.07797132],91,44,hard,minus,dotcolour,alfa,,,129,18,M,R,
116,116,32,2,0,27,53,617,['n'],1,right,['1'],6,83,[-0.06168973],87,53,easy,minus,dotcolour,alfa,,,129,18,M,R,
117,117,33,2,0,36,44,733,['n'],1,right,['1'],6,68,[-0.0753187],93,44,hard,minus,dotcolour,alfa,,,129,18,M,R,
118,118,34,2,0,27,53,500,['n'],1,right,['1'],6,86,[-0.09282364],95,53,easy,minus,dotcolour,alfa,,,129,18,M,R,
119,119,35,2,0,47,33,834,['c'],1,left,['1'],6,75,[0.09713397],96,47,medium,minus,dotcolour,alfa,,,129,18,M,R,
120,120,36,2,0,44,36,950,['c'],1,left,['1'],6,43,[0.0879207],98,44,hard,minus,dotcolour,alfa,,,129,18,M,R,
121,121,37,2,0,53,27,633,['c'],1,left,['1'],6,66,[0.07397978],93,53,easy,minus,dotcolour,alfa,,,129,18,M,R,
122,122,38,2,0,33,47,867,['n'],1,right,['1'],6,37,[-0.10316598],99,47,medium,minus,dotcolour,alfa,,,129,18,M,R,
123,123,39,2,0,36,44,850,['n'],1,right,['1'],6,68,[-0.1196959],98,44,hard,minus,dotcolour,alfa,,,129,18,M,R,
124,124,40,2,0,36,44,651,['n'],1,right,['1'],6,40,[-0.07251256],96,44,hard,minus,dotcolour,alfa,,,129,18,M,R,
125,125,41,2,0,33,47,450,['n'],1,right,['1'],6,118,[-0.04966813],79,47,medium,minus,dotcolour,alfa,,,129,18,M,R,
126,0,0,3,1,33,47,600,['n'],1,right,['1'],6,84,[-0.12145106],100,47,medium,plus,dotcolour,alfa,,,129,18,M,R,
127,1,1,3,1,47,33,833,['c'],1,left,['1'],6,64,[0.05990365],100,47,medium,plus,dotcolour,alfa,,,129,18,M,R,
128,2,2,3,1,47,33,2017,['c'],1,left,['1'],6,46,[0.05628476],100,47,medium,plus,dotcolour,alfa,,,129,18,M,R,
129,3,3,3,1,27,53,667,['n'],1,right,['1'],6,58,[-0.02466061],98,53,easy,plus,dotcolour,alfa,,,129,18,M,R,
130,4,4,3,1,27,53,700,['n'],1,right,['1'],6,125,[-0.10004139],100,53,easy,plus,dotcolour,alfa,,,129,18,M,R,
131,5,5,3,1,27,53,750,['n'],1,right,['1'],6,3035,[-0.39476677],100,53,easy,plus,dotcolour,alfa,,,129,18,M,R,
132,6,6,3,1,27,53,700,['n'],1,right,['1'],6,78,[-0.10286283],100,53,easy,plus,dotcolour,alfa,,,129,18,M,R,
133,7,7,3,1,33,47,684,['n'],1,right,['1'],6,88,[-0.11748794],100,47,medium,plus,dotcolour,alfa,,,129,18,M,R,
134,8,8,3,1,33,47,600,['n'],1,right,['1'],6,110,[-0.09451759],100,47,medium,plus,dotcolour,alfa,,,129,18,M,R,
135,9,9,3,1,53,27,900,['c'],1,left,['1'],6,71,[0.05848829],100,53,easy,plus,dotcolour,alfa,,,129,18,M,R,
136,10,10,3,1,53,27,1000,['c'],1,left,['1'],6,102,[0.07962732],100,53,easy,plus,dotcolour,alfa,,,129,18,M,R,
137,11,11,3,1,53,27,767,['c'],1,left,['1'],6,76,[0.07565345],100,53,easy,plus,dotcolour,alfa,,,129,18,M,R,
138,12,12,3,1,36,44,701,['n'],1,right,['1'],6,118,[-0.1313099],100,44,hard,plus,dotcolour,alfa,,,129,18,M,R,
139,13,13,3,1,44,36,800,['c'],1,left,['1'],6,59,[0.03956942],100,44,hard,plus,dotcolour,alfa,,,129,18,M,R,
140,14,14,3,1,47,33,982,['c'],1,left,['1'],6,35,[0.07376656],100,47,medium,plus,dotcolour,alfa,,,129,18,M,R,
141,15,15,3,1,53,27,683,['c'],1,left,['1'],6,72,[0.069779],100,53,easy,plus,dotcolour,alfa,,,129,18,M,R,
142,16,16,3,1,36,44,983,['n'],1,right,['1'],6,63,[-0.05159594],100,44,hard,plus,dotcolour,alfa,,,129,18,M,R,
143,17,17,3,1,44,36,850,['c'],1,left,['1'],6,35,[0.06332538],100,44,hard,plus,dotcolour,alfa,,,129,18,M,R,
144,18,18,3,1,33,47,634,['n'],1,right,['1'],6,74,[-0.05325715],100,47,medium,plus,dotcolour,alfa,,,129,18,M,R,
145,19,19,3,1,36,44,984,['n'],1,right,['1'],6,89,[-0.10944052],100,44,hard,plus,dotcolour,alfa,,,129,18,M,R,
146,20,20,3,1,44,36,934,['n'],0,left,['1'],6,65,[-0.08201175],100,44,hard,plus,dotcolour,alfa,,,129,18,M,R,
147,21,21,3,1,44,36,1884,['c'],1,left,['1'],6,21,[0.08269544],100,44,hard,plus,dotcolour,alfa,,,129,18,M,R,
148,22,22,3,1,36,44,1018,['n'],1,right,['1'],6,69,[-0.0993418],100,44,hard,plus,dotcolour,alfa,,,129,18,M,R,
149,23,23,3,1,27,53,767,['n'],1,right,['1'],6,125,[-0.06320296],100,53,easy,plus,dotcolour,alfa,,,129,18,M,R,
150,24,24,3,1,53,27,1250,['c'],1,left,['1'],6,71,[0.09574172],100,53,easy,plus,dotcolour,alfa,,,129,18,M,R,
151,25,25,3,1,53,27,1117,['c'],1,left,['1'],6,57,[0.07184146],100,53,easy,plus,dotcolour,alfa,,,129,18,M,R,
152,26,26,3,1,33,47,1167,['n'],1,right,['1'],6,89,[-0.03768489],99,47,medium,plus,dotcolour,alfa,,,129,18,M,R,
153,27,27,3,1,47,33,901,['c'],1,left,['1'],6,83,[0.11516857],100,47,medium,plus,dotcolour,alfa,,,129,18,M,R,
154,28,28,3,1,47,33,3384,['c'],1,left,['1'],6,562,[0.12525574],100,47,medium,plus,dotcolour,alfa,,,129,18,M,R,
155,29,29,3,1,33,47,750,['n'],1,right,['1'],6,47,[-0.07983563],100,47,medium,plus,dotcolour,alfa,,,129,18,M,R,
156,30,30,3,1,44,36,917,['n'],0,left,['1'],6,73,[-0.02866368],98,44,hard,plus,dotcolour,alfa,,,129,18,M,R,
157,31,31,3,1,27,53,750,['n'],1,right,['1'],6,98,[-0.04771278],100,53,easy,plus,dotcolour,alfa,,,129,18,M,R,
158,32,32,3,1,36,44,600,['n'],1,right,['1'],6,87,[-0.0435012],100,44,hard,plus,dotcolour,alfa,,,129,18,M,R,
159,33,33,3,1,44,36,650,['n'],0,left,['1'],6,83,[-0.08594254],100,44,hard,plus,dotcolour,alfa,,,129,18,M,R,
160,34,34,3,1,27,53,517,['n'],1,right,['1'],6,77,[-0.076211],100,53,easy,plus,dotcolour,alfa,,,129,18,M,R,
161,35,35,3,1,47,33,717,['n'],0,left,['1'],6,78,[-0.10108191],100,47,medium,plus,dotcolour,alfa,,,129,18,M,R,
162,36,36,3,1,53,27,767,['c'],1,left,['1'],6,85,[0.08016081],100,53,easy,plus,dotcolour,alfa,,,129,18,M,R,
163,37,37,3,1,44,36,733,['n'],0,left,['1'],6,86,[-0.09590721],100,44,hard,plus,dotcolour,alfa,,,129,18,M,R,
164,38,38,3,1,33,47,551,['n'],1,right,['1'],6,94,[-0.14348157],100,47,medium,plus,dotcolour,alfa,,,129,18,M,R,
165,39,39,3,1,36,44,1051,['n'],1,right,['1'],6,89,[-0.09297291],100,44,hard,plus,dotcolour,alfa,,,129,18,M,R,
166,40,40,3,1,36,44,601,['n'],1,right,['1'],6,119,[-0.05521588],100,44,hard,plus,dotcolour,alfa,,,129,18,M,R,
167,41,41,3,1,47,33,734,['c'],1,left,['1'],6,86,[0.07522287],100,47,medium,plus,dotcolour,alfa,,,129,18,M,R,
168,42,0,4,1,36,44,751,['n'],1,right,['1'],6,85,[-0.06261208],100,44,hard,plus,dotcolour,alfa,,,129,18,M,R,
169,43,1,4,1,27,53,450,['n'],1,right,['1'],6,65,[-0.10236238],100,53,easy,plus,dotcolour,alfa,,,129,18,M,R,
170,44,2,4,1,27,53,434,['n'],1,right,['1'],6,62,[-0.09382448],100,53,easy,plus,dotcolour,alfa,,,129,18,M,R,
171,45,3,4,1,27,53,483,['n'],1,right,['1'],6,97,[-0.10509046],100,53,easy,plus,dotcolour,alfa,,,129,18,M,R,
172,46,4,4,1,44,36,750,['n'],0,left,['1'],6,89,[-0.06169754],100,44,hard,plus,dotcolour,alfa,,,129,18,M,R,
173,47,5,4,1,47,33,1217,['n'],0,left,['1'],6,38,[-0.07833848],100,47,medium,plus,dotcolour,alfa,,,129,18,M,R,
174,48,6,4,1,47,33,1451,['c'],1,left,['1'],6,68,[0.14055054],100,47,medium,plus,dotcolour,alfa,,,129,18,M,R,
175,49,7,4,1,27,53,635,['n'],1,right,['1'],6,73,[-0.07884786],100,53,easy,plus,dotcolour,alfa,,,129,18,M,R,
176,50,8,4,1,36,44,651,['n'],1,right,['1'],6,69,[-0.03139682],99,44,hard,plus,dotcolour,alfa,,,129,18,M,R,
177,51,9,4,1,33,47,700,['n'],1,right,['1'],6,80,[-0.05242222],100,47,medium,plus,dotcolour,alfa,,,129,18,M,R,
178,52,10,4,1,27,53,834,['n'],1,right,['1'],6,109,[-0.1106091],100,53,easy,plus,dotcolour,alfa,,,129,18,M,R,
179,53,11,4,1,33,47,567,['n'],1,right,['1'],6,98,[-0.05519164],100,47,medium,plus,dotcolour,alfa,,,129,18,M,R,
180,54,12,4,1,44,36,2200,['n'],0,left,['1'],6,104,[-0.09439524],100,44,hard,plus,dotcolour,alfa,,,129,18,M,R,
181,55,13,4,1,47,33,967,['c'],1,left,['1'],6,87,[0.06778804],100,47,medium,plus,dotcolour,alfa,,,129,18,M,R,
182,56,14,4,1,33,47,584,['n'],1,right,['1'],6,94,[-0.11681809],100,47,medium,plus,dotcolour,alfa,,,129,18,M,R,
183,57,15,4,1,36,44,499,['n'],1,right,['1'],6,63,[-0.03817945],100,44,hard,plus,dotcolour,alfa,,,129,18,M,R,
184,58,16,4,1,44,36,1850,['n'],0,left,['1'],6,275,[-0.08615183],100,44,hard,plus,dotcolour,alfa,,,129,18,M,R,
185,59,17,4,1,33,47,450,['n'],1,right,['1'],6,55,[-0.07498047],100,47,medium,plus,dotcolour,alfa,,,129,18,M,R,
186,60,18,4,1,36,44,417,['n'],1,right,['1'],6,102,[-0.0603759],100,44,hard,plus,dotcolour,alfa,,,129,18,M,R,
187,61,19,4,1,44,36,883,['n'],0,left,['1'],6,88,[-0.03060727],98,44,hard,plus,dotcolour,alfa,,,129,18,M,R,
188,62,20,4,1,36,44,734,['n'],1,right,['1'],6,57,[-0.11099245],100,44,hard,plus,dotcolour,alfa,,,129,18,M,R,
189,63,21,4,1,47,33,950,['c'],1,left,['1'],6,49,[0.07606728],100,47,medium,plus,dotcolour,alfa,,,129,18,M,R,
190,64,22,4,1,53,27,551,['c'],1,left,['1'],6,67,[0.03649203],99,53,easy,plus,dotcolour,alfa,,,129,18,M,R,
191,65,23,4,1,33,47,750,['n'],1,right,['1'],6,75,[-0.02955473],98,47,medium,plus,dotcolour,alfa,,,129,18,M,R,
192,66,24,4,1,53,27,867,['n'],0,left,['1'],6,103,[-0.05961216],100,53,easy,plus,dotcolour,alfa,,,129,18,M,R,
193,67,25,4,1,33,47,717,['n'],1,right,['1'],6,63,[-0.09409371],100,47,medium,plus,dotcolour,alfa,,,129,18,M,R,
194,68,26,4,1,27,53,450,['n'],1,right,['1'],6,244,[-0.12900355],100,53,easy,plus,dotcolour,alfa,,,129,18,M,R,
195,69,27,4,1,44,36,417,['n'],0,left,['1'],6,179,[-0.06521644],100,44,hard,plus,dotcolour,alfa,,,129,18,M,R,
196,70,28,4,1,44,36,650,['n'],0,left,['1'],6,75,[-0.04571719],100,44,hard,plus,dotcolour,alfa,,,129,18,M,R,
197,71,29,4,1,33,47,400,['n'],1,right,['1'],6,57,[-0.08859356],100,47,medium,plus,dotcolour,alfa,,,129,18,M,R,
198,72,30,4,1,44,36,384,['n'],0,left,['1'],6,161,[0.01945968],15,44,hard,plus,dotcolour,alfa,,,129,18,M,R,
199,73,31,4,1,53,27,984,['n'],0,left,['1'],6,67,[-0.04265387],100,53,easy,plus,dotcolour,alfa,,,129,18,M,R,
200,74,32,4,1,53,27,817,['n'],0,left,['1'],6,105,[-0.06970926],100,53,easy,plus,dotcolour,alfa,,,129,18,M,R,
201,75,33,4,1,53,27,851,['c'],1,left,['1'],6,77,[0.10496949],100,53,easy,plus,dotcolour,alfa,,,129,18,M,R,
202,76,34,4,1,53,27,1400,['n'],0,left,['1'],6,91,[-0.07322734],100,53,easy,plus,dotcolour,alfa,,,129,18,M,R,
203,77,35,4,1,36,44,667,['c'],0,right,['1'],6,69,[0.09585853],100,44,hard,plus,dotcolour,alfa,,,129,18,M,R,
204,78,36,4,1,47,33,867,['c'],1,left,['1'],6,66,[0.06375376],100,47,medium,plus,dotcolour,alfa,,,129,18,M,R,
205,79,37,4,1,47,33,900,['n'],0,left,['1'],6,52,[-0.09232014],100,47,medium,plus,dotcolour,alfa,,,129,18,M,R,
206,80,38,4,1,27,53,634,['n'],1,right,['1'],6,66,[-0.07342076],100,53,easy,plus,dotcolour,alfa,,,129,18,M,R,
207,81,39,4,1,36,44,800,['n'],1,right,['1'],6,57,[-0.05520617],100,44,hard,plus,dotcolour,alfa,,,129,18,M,R,
208,82,40,4,1,47,33,983,['c'],1,left,['1'],6,16,[0.08111337],100,47,medium,plus,dotcolour,alfa,,,129,18,M,R,
209,83,41,4,1,53,27,617,['n'],0,left,['9'],2,2808,[0.29923011],0,53,easy,plus,dotcolour,alfa,,,129,18,M,R,
210,84,0,5,1,47,33,1683,['c'],1,left,['1'],6,269,[0.04312861],95,47,medium,plus,dotcolour,alfa,,,129,18,M,R,
211,85,1,5,1,27,53,683,['n'],1,right,['1'],6,72,[-0.03940504],99,53,easy,plus,dotcolour,alfa,,,129,18,M,R,
212,86,2,5,1,53,27,800,['c'],1,left,['1'],6,79,[0.12716818],100,53,easy,plus,dotcolour,alfa,,,129,18,M,R,
213,87,3,5,1,44,36,701,['c'],1,left,['1'],6,48,[0.06054123],100,44,hard,plus,dotcolour,alfa,,,129,18,M,R,
214,88,4,5,1,44,36,783,['n'],0,left,['1'],6,16,[-0.08224648],100,44,hard,plus,dotcolour,alfa,,,129,18,M,R,
215,89,5,5,1,47,33,766,['c'],1,left,['1'],6,43,[0.07722674],100,47,medium,plus,dotcolour,alfa,,,129,18,M,R,
216,90,6,5,1,36,44,600,['n'],1,right,['1'],6,74,[-0.0418441],100,44,hard,plus,dotcolour,alfa,,,129,18,M,R,
217,91,7,5,1,33,47,600,['n'],1,right,['1'],6,48,[-0.09010119],100,47,medium,plus,dotcolour,alfa,,,129,18,M,R,
218,92,8,5,1,27,53,634,['n'],1,right,['1'],6,78,[-0.01860941],92,53,easy,plus,dotcolour,alfa,,,129,18,M,R,
219,93,9,5,1,27,53,534,['n'],1,right,['1'],6,86,[-0.04162507],99,53,easy,plus,dotcolour,alfa,,,129,18,M,R,
220,94,10,5,1,44,36,500,['n'],0,left,['1'],6,89,[-0.11983824],100,44,hard,plus,dotcolour,alfa,,,129,18,M,R,
221,95,11,5,1,36,44,384,['n'],1,right,['1'],6,239,[-0.06845008],99,44,hard,plus,dotcolour,alfa,,,129,18,M,R,
222,96,12,5,1,36,44,433,['n'],1,right,['1'],6,102,[-0.02785197],96,44,hard,plus,dotcolour,alfa,,,129,18,M,R,
223,97,13,5,1,36,44,600,['n'],1,right,['1'],6,83,[-0.01279174],83,44,hard,plus,dotcolour,alfa,,,129,18,M,R,
224,98,14,5,1,33,47,633,['n'],1,right,['1'],6,87,[-0.08480104],100,47,medium,plus,dotcolour,alfa,,,129,18,M,R,
225,99,15,5,1,53,27,1483,['c'],1,left,['1'],6,90,[0.07237453],100,53,easy,plus,dotcolour,alfa,,,129,18,M,R,
226,100,16,5,1,27,53,650,['n'],1,right,['1'],6,29,[-0.09198746],100,53,easy,plus,dotcolour,alfa,,,129,18,M,R,
227,101,17,5,1,36,44,1150,['c'],0,right,['1'],6,55,[0.05146877],100,44,hard,plus,dotcolour,alfa,,,129,18,M,R,
228,102,18,5,1,33,47,584,['n'],1,right,['1'],6,80,[-0.0630332],100,47,medium,plus,dotcolour,alfa,,,129,18,M,R,
229,103,19,5,1,47,33,768,['c'],1,left,['1'],6,54,[0.07600603],100,47,medium,plus,dotcolour,alfa,,,129,18,M,R,
230,104,20,5,1,27,53,667,['n'],1,right,['1'],6,91,[-0.10093409],100,53,easy,plus,dotcolour,alfa,,,129,18,M,R,
231,105,21,5,1,27,53,584,['n'],1,right,['1'],6,33,[-0.07078003],100,53,easy,plus,dotcolour,alfa,,,129,18,M,R,
232,106,22,5,1,53,27,583,['c'],1,left,['1'],6,50,[0.05053119],100,53,easy,plus,dotcolour,alfa,,,129,18,M,R,
233,107,23,5,1,36,44,717,['n'],1,right,['1'],6,76,[-0.06497942],100,44,hard,plus,dotcolour,alfa,,,129,18,M,R,
234,108,24,5,1,33,47,633,['n'],1,right,['1'],6,41,[-0.09975334],100,47,medium,plus,dotcolour,alfa,,,129,18,M,R,
235,109,25,5,1,44,36,650,['c'],1,left,['1'],6,38,[0.06390652],100,44,hard,plus,dotcolour,alfa,,,129,18,M,R,
236,110,26,5,1,44,36,751,['c'],1,left,['1'],6,57,[0.09466622],100,44,hard,plus,dotcolour,alfa,,,129,18,M,R,
237,111,27,5,1,53,27,650,['c'],1,left,['1'],6,102,[0.1218654],100,53,easy,plus,dotcolour,alfa,,,129,18,M,R,
238,112,28,5,1,27,53,699,['n'],1,right,['1'],6,63,[-0.08316943],100,53,easy,plus,dotcolour,alfa,,,129,18,M,R,
239,113,29,5,1,36,44,783,['n'],1,right,['1'],6,54,[-0.04929137],100,44,hard,plus,dotcolour,alfa,,,129,18,M,R,
240,114,30,5,1,44,36,768,['c'],1,left,['1'],6,71,[0.05812963],100,44,hard,plus,dotcolour,alfa,,,129,18,M,R,
241,115,31,5,1,44,36,884,['n'],0,left,['1'],6,3,[-0.07335835],100,44,hard,plus,dotcolour,alfa,,,129,18,M,R,
242,116,32,5,1,47,33,584,['n'],0,left,['1'],6,44,[-0.0764933],100,47,medium,plus,dotcolour,alfa,,,129,18,M,R,
243,117,33,5,1,33,47,634,['n'],1,right,['1'],6,98,[-0.04703322],100,47,medium,plus,dotcolour,alfa,,,129,18,M,R,
244,118,34,5,1,47,33,850,['n'],0,left,['1'],6,78,[-0.02720726],97,47,medium,plus,dotcolour,alfa,,,129,18,M,R,
245,119,35,5,1,53,27,934,['c'],1,left,['1'],6,54,[0.07875756],100,53,easy,plus,dotcolour,alfa,,,129,18,M,R,
246,120,36,5,1,47,33,1050,['c'],1,left,['1'],6,68,[0.06414799],100,47,medium,plus,dotcolour,alfa,,,129,18,M,R,
247,121,37,5,1,33,47,749,['n'],1,right,['1'],6,52,[-0.07089377],100,47,medium,plus,dotcolour,alfa,,,129,18,M,R,
248,122,38,5,1,53,27,701,['c'],1,left,['1'],6,56,[0.06308305],100,53,easy,plus,dotcolour,alfa,,,129,18,M,R,
249,123,39,5,1,47,33,635,['c'],1,left,['1'],6,54,[0.07811004],100,47,medium,plus,dotcolour,alfa,,,129,18,M,R,
250,124,40,5,1,33,47,717,['n'],1,right,['1'],6,48,[-0.09715443],100,47,medium,plus,dotcolour,alfa,,,129,18,M,R,
251,125,41,5,1,53,27,700,['c'],1,left,['1'],6,76,[0.06594246],100,53,easy,plus,dotcolour,alfa,,,129,18,M,R,
252,0,0,6,2,53,27,768,['c'],1,left,['1'],6,71,[0.10089589],97,53,easy,minus,dotcolour,alfa,,,129,18,M,R,
253,1,1,6,2,27,53,650,['n'],1,right,['1'],6,60,[-0.02647009],73,53,easy,minus,dotcolour,alfa,,,129,18,M,R,
254,2,2,6,2,53,27,650,['c'],1,left,['1'],6,57,[0.0548322],89,53,easy,minus,dotcolour,alfa,,,129,18,M,R,
255,3,3,6,2,33,47,667,['n'],1,right,['1'],6,45,[-0.06282795],93,47,medium,minus,dotcolour,alfa,,,129,18,M,R,
256,4,4,6,2,47,33,649,['c'],1,left,['1'],6,66,[0.06740852],91,47,medium,minus,dotcolour,alfa,,,129,18,M,R,
257,5,5,6,2,27,53,650,['n'],1,right,['1'],6,79,[-0.08074832],93,53,easy,minus,dotcolour,alfa,,,129,18,M,R,
258,6,6,6,2,33,47,633,['n'],1,right,['1'],6,35,[-0.05933468],95,47,medium,minus,dotcolour,alfa,,,129,18,M,R,
259,7,7,6,2,36,44,1268,['n'],1,right,['8'],3,665,[-0.2277943],93,44,hard,minus,dotcolour,alfa,,,129,18,M,R,
260,8,8,6,2,44,36,850,['n'],0,left,['1'],6,109,[-0.04056133],75,44,hard,minus,dotcolour,alfa,,,129,18,M,R,
261,9,9,6,2,53,27,633,['n'],0,left,['1'],6,89,[-0.00522142],54,53,easy,minus,dotcolour,alfa,,,129,18,M,R,
262,10,10,6,2,47,33,917,['c'],1,left,['1'],6,58,[0.0811103],95,47,medium,minus,dotcolour,alfa,,,129,18,M,R,
263,11,11,6,2,47,33,1151,['c'],1,left,['1'],6,99,[0.06178635],85,47,medium,minus,dotcolour,alfa,,,129,18,M,R,
264,12,12,6,2,36,44,783,['n'],1,right,['1'],6,25,[-0.09086369],99,44,hard,minus,dotcolour,alfa,,,129,18,M,R,
265,13,13,6,2,33,47,600,['n'],1,right,['1'],6,41,[-0.07594638],97,47,medium,minus,dotcolour,alfa,,,129,18,M,R,
266,14,14,6,2,33,47,633,['n'],1,right,['1'],6,1623,[-0.46920925],96,47,medium,minus,dotcolour,alfa,,,129,18,M,R,
267,15,15,6,2,36,44,534,['n'],1,right,['1'],6,50,[-0.06001226],92,44,hard,minus,dotcolour,alfa,,,129,18,M,R,
268,16,16,6,2,36,44,584,['n'],1,right,['1'],6,177,[-0.03109288],66,44,hard,minus,dotcolour,alfa,,,129,18,M,R,
269,17,17,6,2,44,36,700,['c'],1,left,['1'],6,47,[0.05074332],89,44,hard,minus,dotcolour,alfa,,,129,18,M,R,
270,18,18,6,2,44,36,751,['n'],0,left,['1'],6,25,[-0.07395178],99,44,hard,minus,dotcolour,alfa,,,129,18,M,R,
271,19,19,6,2,27,53,584,['n'],1,right,['1'],6,25,[-0.05505333],96,53,easy,minus,dotcolour,alfa,,,129,18,M,R,
272,20,20,6,2,47,33,600,['c'],1,left,['1'],6,65,[0.08069961],95,47,medium,minus,dotcolour,alfa,,,129,18,M,R,
273,21,21,6,2,44,36,651,['c'],1,left,['1'],6,110,[0.10502515],95,44,hard,minus,dotcolour,alfa,,,129,18,M,R,
274,22,22,6,2,53,27,551,['c'],1,left,['1'],6,101,[0.10150262],95,53,easy,minus,dotcolour,alfa,,,129,18,M,R,
275,23,23,6,2,27,53,584,['n'],1,right,['1'],6,75,[-0.1185119],98,53,easy,minus,dotcolour,alfa,,,129,18,M,R,
276,24,24,6,2,47,33,783,['c'],1,left,['1'],6,81,[0.1226706],98,47,medium,minus,dotcolour,alfa,,,129,18,M,R,
277,25,25,6,2,27,53,717,['n'],1,right,['1'],6,67,[-0.07175124],92,53,easy,minus,dotcolour,alfa,,,129,18,M,R,
278,26,26,6,2,47,33,667,['c'],1,left,['1'],6,71,[0.06894144],91,47,medium,minus,dotcolour,alfa,,,129,18,M,R,
279,27,27,6,2,36,44,800,['n'],1,right,['1'],6,77,[-0.05181644],84,44,hard,minus,dotcolour,alfa,,,129,18,M,R,
280,28,28,6,2,33,47,717,['n'],1,right,['1'],6,79,[-0.03062687],73,47,medium,minus,dotcolour,alfa,,,129,18,M,R,
281,29,29,6,2,53,27,617,['c'],1,left,['1'],6,116,[0.15867146],99,53,easy,minus,dotcolour,alfa,,,129,18,M,R,
282,30,30,6,2,33,47,633,['n'],1,right,['1'],6,96,[-0.0426558],78,47,medium,minus,dotcolour,alfa,,,129,18,M,R,
283,31,31,6,2,36,44,784,['n'],1,right,['1'],6,46,[-0.09066592],98,44,hard,minus,dotcolour,alfa,,,129,18,M,R,
284,32,32,6,2,47,33,617,['c'],1,left,['1'],6,52,[0.10382086],98,47,medium,minus,dotcolour,alfa,,,129,18,M,R,
285,33,33,6,2,44,36,650,['c'],1,left,['1'],6,65,[0.08646335],95,44,hard,minus,dotcolour,alfa,,,129,18,M,R,
286,34,34,6,2,27,53,567,['n'],1,right,['1'],6,65,[-0.03890835],80,53,easy,minus,dotcolour,alfa,,,129,18,M,R,
287,35,35,6,2,53,27,683,['c'],1,left,['1'],6,69,[0.10668551],97,53,easy,minus,dotcolour,alfa,,,129,18,M,R,
288,36,36,6,2,44,36,667,['c'],1,left,['1'],6,49,[0.07079923],95,44,hard,minus,dotcolour,alfa,,,129,18,M,R,
289,37,37,6,2,53,27,967,['c'],1,left,['1'],6,33,[0.05794676],95,53,easy,minus,dotcolour,alfa,,,129,18,M,R,
290,38,38,6,2,33,47,683,['n'],1,right,['1'],6,62,[-0.08185757],95,47,medium,minus,dotcolour,alfa,,,129,18,M,R,
291,39,39,6,2,44,36,683,['c'],1,left,['1'],6,25,[0.07576661],99,44,hard,minus,dotcolour,alfa,,,129,18,M,R,
292,40,40,6,2,27,53,767,['n'],1,right,['1'],6,51,[-0.03536367],80,53,easy,minus,dotcolour,alfa,,,129,18,M,R,
293,41,41,6,2,36,44,650,['n'],1,right,['1'],6,88,[-0.0711984],90,44,hard,minus,dotcolour,alfa,,,129,18,M,R,
294,42,0,7,2,33,47,634,['n'],1,right,['1'],6,58,[-0.06557496],92,47,medium,minus,dotcolour,alfa,,,129,18,M,R,
295,43,1,7,2,47,33,700,['n'],0,left,['1'],6,93,[-0.04786922],80,47,medium,minus,dotcolour,alfa,,,129,18,M,R,
296,44,2,7,2,47,33,851,['c'],1,left,['1'],6,32,[0.07692354],98,47,medium,minus,dotcolour,alfa,,,129,18,M,R,
297,45,3,7,2,47,33,800,['c'],1,left,['1'],6,88,[0.09634787],95,47,medium,minus,dotcolour,alfa,,,129,18,M,R,
298,46,4,7,2,53,27,683,['c'],1,left,['1'],6,91,[0.12425292],98,53,easy,minus,dotcolour,alfa,,,129,18,M,R,
299,47,5,7,2,36,44,633,['c'],0,right,['1'],6,487,[-0.0502609],34,44,hard,minus,dotcolour,alfa,,,129,18,M,R,
300,48,6,7,2,36,44,716,['n'],1,right,['1'],6,47,[-0.07166273],95,44,hard,minus,dotcolour,alfa,,,129,18,M,R,
301,49,7,7,2,47,33,799,['c'],1,left,['1'],6,1200,[0.04928784],60,47,medium,minus,dotcolour,alfa,,,129,18,M,R,
302,50,8,7,2,44,36,1100,['n'],0,left,['1'],6,180,[-0.02829764],65,44,hard,minus,dotcolour,alfa,,,129,18,M,R,
303,51,9,7,2,27,53,517,['n'],1,right,['1'],6,89,[-0.12746981],98,53,easy,minus,dotcolour,alfa,,,129,18,M,R,
304,52,10,7,2,53,27,599,['c'],1,left,['1'],6,87,[0.14692305],99,53,easy,minus,dotcolour,alfa,,,129,18,M,R,
305,53,11,7,2,33,47,667,['n'],1,right,['1'],6,58,[-0.05104632],87,47,medium,minus,dotcolour,alfa,,,129,18,M,R,
306,54,12,7,2,53,27,650,['c'],1,left,['1'],6,47,[0.09684119],98,53,easy,minus,dotcolour,alfa,,,129,18,M,R,
307,55,13,7,2,36,44,601,['n'],1,right,['1'],6,70,[-0.05076309],85,44,hard,minus,dotcolour,alfa,,,129,18,M,R,
308,56,14,7,2,33,47,700,['n'],1,right,['1'],6,65,[-0.088799],96,47,medium,minus,dotcolour,alfa,,,129,18,M,R,
309,57,15,7,2,44,36,634,['c'],1,left,['1'],6,54,[0.05356247],89,44,hard,minus,dotcolour,alfa,,,129,18,M,R,
310,58,16,7,2,27,53,600,['n'],1,right,['1'],6,61,[-0.095154],97,53,easy,minus,dotcolour,alfa,,,129,18,M,R,
311,59,17,7,2,44,36,800,['c'],1,left,['1'],6,52,[0.05261928],89,44,hard,minus,dotcolour,alfa,,,129,18,M,R,
312,60,18,7,2,33,47,684,['n'],1,right,['1'],6,16,[-0.08579147],100,47,medium,minus,dotcolour,alfa,,,129,18,M,R,
313,61,19,7,2,47,33,667,['n'],0,left,['1'],6,94,[-0.08260244],92,47,medium,minus,dotcolour,alfa,,,129,18,M,R,
314,62,20,7,2,27,53,683,['n'],1,right,['1'],6,48,[-0.08660633],97,53,easy,minus,dotcolour,alfa,,,129,18,M,R,
315,63,21,7,2,27,53,600,['n'],1,right,['1'],6,48,[-0.04580295],87,53,easy,minus,dotcolour,alfa,,,129,18,M,R,
316,64,22,7,2,44,36,850,['c'],1,left,['1'],6,53,[0.04990946],88,44,hard,minus,dotcolour,alfa,,,129,18,M,R,
317,65,23,7,2,27,53,934,['c'],0,right,['1'],6,55,[0.09713616],98,53,easy,minus,dotcolour,alfa,,,129,18,M,R,
318,66,24,7,2,27,53,717,['n'],1,right,['1'],6,33,[-0.05506519],94,53,easy,minus,dotcolour,alfa,,,129,18,M,R,
319,67,25,7,2,36,44,617,['n'],1,right,['1'],6,41,[-0.07320799],96,44,hard,minus,dotcolour,alfa,,,129,18,M,R,
320,68,26,7,2,44,36,634,['n'],0,left,['1'],6,55,[-0.09923045],98,44,hard,minus,dotcolour,alfa,,,129,18,M,R,
321,69,27,7,2,33,47,617,['n'],1,right,['1'],6,30,[-0.05705554],95,47,medium,minus,dotcolour,alfa,,,129,18,M,R,
322,70,28,7,2,53,27,817,['c'],1,left,['1'],6,61,[0.11586517],99,53,easy,minus,dotcolour,alfa,,,129,18,M,R,
323,71,29,7,2,44,36,551,['n'],0,left,['1'],6,70,[-0.10266073],97,44,hard,minus,dotcolour,alfa,,,129,18,M,R,
324,72,30,7,2,36,44,833,['n'],1,right,['1'],6,35,[-0.08346844],98,44,hard,minus,dotcolour,alfa,,,129,18,M,R,
325,73,31,7,2,47,33,766,['n'],0,left,['1'],6,28,[-0.06932988],98,47,medium,minus,dotcolour,alfa,,,129,18,M,R,
326,74,32,7,2,53,27,733,['c'],1,left,['1'],6,95,[0.12033465],97,53,easy,minus,dotcolour,alfa,,,129,18,M,R,
327,75,33,7,2,33,47,735,['n'],1,right,['1'],6,135,[-0.09025913],90,47,medium,minus,dotcolour,alfa,,,129,18,M,R,
328,76,34,7,2,44,36,733,['n'],0,left,['1'],6,22,[-0.07410041],99,44,hard,minus,dotcolour,alfa,,,129,18,M,R,
329,77,35,7,2,33,47,600,['n'],1,right,['1'],6,14,[-0.06305155],99,47,medium,minus,dotcolour,alfa,,,129,18,M,R,
330,78,36,7,2,47,33,916,['c'],1,left,['1'],6,82,[0.06584931],89,47,medium,minus,dotcolour,alfa,,,129,18,M,R,
331,79,37,7,2,36,44,584,['n'],1,right,['1'],6,201,[-0.02335058],62,44,hard,minus,dotcolour,alfa,,,129,18,M,R,
332,80,38,7,2,27,53,682,['n'],1,right,['1'],6,39,[-0.06531462],95,53,easy,minus,dotcolour,alfa,,,129,18,M,R,
333,81,39,7,2,36,44,1133,['n'],1,right,['9'],2,2266,[-0.07897496],62,44,hard,minus,dotcolour,alfa,,,129,18,M,R,
334,82,40,7,2,53,27,1000,['c'],1,left,['1'],6,80,[0.08523289],94,53,easy,minus,dotcolour,alfa,,,129,18,M,R,
335,83,41,7,2,53,27,600,['c'],1,left,['1'],6,22,[0.06471553],98,53,easy,minus,dotcolour,alfa,,,129,18,M,R,
336,84,0,8,2,27,53,718,['n'],1,right,['1'],6,48,[-0.07834918],96,53,easy,minus,dotcolour,alfa,,,129,18,M,R,
337,85,1,8,2,36,44,451,['n'],1,right,['1'],6,70,[-0.10611845],97,44,hard,minus,dotcolour,alfa,,,129,18,M,R,
338,86,2,8,2,53,27,602,['n'],0,left,['1'],6,84,[0.00494666],46,53,easy,minus,dotcolour,alfa,,,129,18,M,R,
339,87,3,8,2,44,36,1166,['c'],1,left,['1'],6,60,[0.04399253],83,44,hard,minus,dotcolour,alfa,,,129,18,M,R,
340,88,4,8,2,27,53,601,['n'],1,right,['1'],6,51,[-0.05976486],92,53,easy,minus,dotcolour,alfa,,,129,18,M,R,
341,89,5,8,2,44,36,666,['n'],0,left,['1'],6,71,[-0.0424952],81,44,hard,minus,dotcolour,alfa,,,129,18,M,R,
342,90,6,8,2,27,53,567,['n'],1,right,['1'],6,87,[-0.06713312],89,53,easy,minus,dotcolour,alfa,,,129,18,M,R,
343,91,7,8,2,27,53,416,['n'],1,right,['1'],6,69,[-0.05981074],89,53,easy,minus,dotcolour,alfa,,,129,18,M,R,
344,92,8,8,2,47,33,666,['c'],1,left,['1'],6,40,[0.1047339],99,47,medium,minus,dotcolour,alfa,,,129,18,M,R,
345,93,9,8,2,33,47,567,['n'],1,right,['1'],6,74,[-0.0849343],94,47,medium,minus,dotcolour,alfa,,,129,18,M,R,
346,94,10,8,2,33,47,867,['n'],1,right,['1'],6,53,[-0.07398239],95,47,medium,minus,dotcolour,alfa,,,129,18,M,R,
347,95,11,8,2,44,36,550,['n'],0,left,['1'],6,78,[-0.0515552],84,44,hard,minus,dotcolour,alfa,,,129,18,M,R,
348,96,12,8,2,47,33,1067,['n'],0,left,['1'],6,34,[-0.07667947],98,47,medium,minus,dotcolour,alfa,,,129,18,M,R,
349,97,13,8,2,33,47,567,['n'],1,right,['1'],6,59,[-0.0571969],89,47,medium,minus,dotcolour,alfa,,,129,18,M,R,
350,98,14,8,2,47,33,883,['c'],1,left,['1'],6,62,[0.09057152],96,47,medium,minus,dotcolour,alfa,,,129,18,M,R,
351,99,15,8,2,47,33,800,['n'],0,left,['1'],6,69,[-0.06999576],92,47,medium,minus,dotcolour,alfa,,,129,18,M,R,
352,100,16,8,2,27,53,683,['n'],1,right,['1'],6,9,[-0.07454012],100,53,easy,minus,dotcolour,alfa,,,129,18,M,R,
353,101,17,8,2,44,36,833,['n'],0,left,['1'],6,56,[-0.07702569],95,44,hard,minus,dotcolour,alfa,,,129,18,M,R,
354,102,18,8,2,33,47,568,['n'],1,right,['1'],6,24,[-0.06636286],98,47,medium,minus,dotcolour,alfa,,,129,18,M,R,
355,103,19,8,2,44,36,967,['n'],0,left,['1'],6,18,[-0.07078917],99,44,hard,minus,dotcolour,alfa,,,129,18,M,R,
356,104,20,8,2,33,47,534,['n'],1,right,['1'],6,85,[-0.08762552],94,47,medium,minus,dotcolour,alfa,,,129,18,M,R,
357,105,21,8,2,36,44,1116,['c'],0,right,['1'],6,39,[0.06721368],96,44,hard,minus,dotcolour,alfa,,,129,18,M,R,
358,106,22,8,2,53,27,733,['c'],1,left,['1'],6,57,[0.09128064],97,53,easy,minus,dotcolour,alfa,,,129,18,M,R,
359,107,23,8,2,36,44,600,['n'],1,right,['1'],6,48,[-0.05971396],92,44,hard,minus,dotcolour,alfa,,,129,18,M,R,
360,108,24,8,2,27,53,533,['n'],1,right,['1'],6,106,[-0.12637233],97,53,easy,minus,dotcolour,alfa,,,129,18,M,R,
361,109,25,8,2,53,27,617,['c'],1,left,['1'],6,95,[0.132507],98,53,easy,minus,dotcolour,alfa,,,129,18,M,R,
362,110,26,8,2,44,36,2767,['n'],0,left,['1'],6,677,[-0.02637847],57,44,hard,minus,dotcolour,alfa,,,129,18,M,R,
363,111,27,8,2,33,47,600,['n'],1,right,['1'],6,75,[-0.03094665],73,47,medium,minus,dotcolour,alfa,,,129,18,M,R,
364,112,28,8,2,53,27,684,['c'],1,left,['1'],6,278,[0.14613787],92,53,easy,minus,dotcolour,alfa,,,129,18,M,R,
365,113,29,8,2,47,33,600,['c'],1,left,['1'],6,69,[0.07876667],94,47,medium,minus,dotcolour,alfa,,,129,18,M,R,
366,114,30,8,2,53,27,667,['c'],1,left,['1'],6,24,[0.04496301],93,53,easy,minus,dotcolour,alfa,,,129,18,M,R,
367,115,31,8,2,36,44,1217,['n'],1,right,['1'],6,55,[-0.10733904],98,44,hard,minus,dotcolour,alfa,,,129,18,M,R,
368,116,32,8,2,33,47,766,['n'],1,right,['1'],6,64,[-0.11424848],98,47,medium,minus,dotcolour,alfa,,,129,18,M,R,
369,117,33,8,2,47,33,833,['c'],1,left,['1'],6,53,[0.06402228],92,47,medium,minus,dotcolour,alfa,,,129,18,M,R,
370,118,34,8,2,27,53,701,['n'],1,right,['1'],6,80,[-0.04813155],82,53,easy,minus,dotcolour,alfa,,,129,18,M,R,
371,119,35,8,2,36,44,734,['n'],1,right,['1'],6,49,[-0.02119022],70,44,hard,minus,dotcolour,alfa,,,129,18,M,R,
372,120,36,8,2,47,33,717,['n'],0,left,['1'],6,60,[-0.0557143],89,47,medium,minus,dotcolour,alfa,,,129,18,M,R,
373,121,37,8,2,53,27,701,['c'],1,left,['1'],6,55,[0.09017633],97,53,easy,minus,dotcolour,alfa,,,129,18,M,R,
374,122,38,8,2,36,44,700,['n'],1,right,['1'],6,98,[0.01144848],42,44,hard,minus,dotcolour,alfa,,,129,18,M,R,
375,123,39,8,2,53,27,1416,['c'],1,left,['1'],6,63,[0.07620781],94,53,easy,minus,dotcolour,alfa,,,129,18,M,R,
376,124,40,8,2,44,36,718,['n'],0,left,['1'],6,56,[-0.09491745],97,44,hard,minus,dotcolour,alfa,,,129,18,M,R,
377,125,41,8,2,36,44,701,['n'],1,right,['1'],6,67,[-0.07657571],93,44,hard,minus,dotcolour,alfa,,,129,18,M,R,
378,0,0,9,3,33,47,701,['n'],1,right,['1'],6,70,[-0.05571325],100,47,medium,plus,dotcolour,alfa,,,129,18,M,R,
379,1,1,9,3,53,27,666,['c'],1,left,['1'],6,43,[0.081517],100,53,easy,plus,dotcolour,alfa,,,129,18,M,R,
380,2,2,9,3,53,27,633,['c'],1,left,['1'],6,16,[0.05865818],100,53,easy,plus,dotcolour,alfa,,,129,18,M,R,
381,3,3,9,3,36,44,550,['n'],1,right,['1'],6,51,[-0.05778855],100,44,hard,plus,dotcolour,alfa,,,129,18,M,R,
382,4,4,9,3,44,36,917,['n'],0,left,['1'],6,142,[-0.03597059],97,44,hard,plus,dotcolour,alfa,,,129,18,M,R,
383,5,5,9,3,47,33,700,['n'],0,left,['1'],6,20,[-0.06992195],100,47,medium,plus,dotcolour,alfa,,,129,18,M,R,
384,6,6,9,3,44,36,499,['n'],0,left,['1'],6,50,[-0.06489139],100,44,hard,plus,dotcolour,alfa,,,129,18,M,R,
385,7,7,9,3,36,44,617,['n'],1,right,['1'],6,72,[-0.06804011],100,44,hard,plus,dotcolour,alfa,,,129,18,M,R,
386,8,8,9,3,53,27,783,['c'],1,left,['1'],6,48,[0.09858741],100,53,easy,plus,dotcolour,alfa,,,129,18,M,R,
387,9,9,9,3,47,33,733,['c'],1,left,['1'],6,41,[0.09903714],100,47,medium,plus,dotcolour,alfa,,,129,18,M,R,
388,10,10,9,3,27,53,534,['n'],1,right,['1'],6,59,[-0.12554626],100,53,easy,plus,dotcolour,alfa,,,129,18,M,R,
389,11,11,9,3,44,36,733,['n'],0,left,['1'],6,61,[-0.0868282],100,44,hard,plus,dotcolour,alfa,,,129,18,M,R,
390,12,12,9,3,47,33,816,['n'],0,left,['1'],6,84,[-0.06860169],100,47,medium,plus,dotcolour,alfa,,,129,18,M,R,
391,13,13,9,3,27,53,534,['n'],1,right,['1'],6,75,[-0.05714099],100,53,easy,plus,dotcolour,alfa,,,129,18,M,R,
392,14,14,9,3,33,47,699,['n'],1,right,['1'],6,53,[-0.10731845],100,47,medium,plus,dotcolour,alfa,,,129,18,M,R,
393,15,15,9,3,44,36,1000,['c'],1,left,['1'],6,61,[0.11613812],100,44,hard,plus,dotcolour,alfa,,,129,18,M,R,
394,16,16,9,3,33,47,583,['n'],1,right,['1'],6,44,[-0.0688382],100,47,medium,plus,dotcolour,alfa,,,129,18,M,R,
395,17,17,9,3,27,53,684,['n'],1,right,['1'],6,64,[-0.06214784],100,53,easy,plus,dotcolour,alfa,,,129,18,M,R,
396,18,18,9,3,36,44,483,['n'],1,right,['1'],6,68,[-0.10477529],100,44,hard,plus,dotcolour,alfa,,,129,18,M,R,
397,19,19,9,3,36,44,550,['n'],1,right,['1'],6,52,[-0.10245282],100,44,hard,plus,dotcolour,alfa,,,129,18,M,R,
398,20,20,9,3,36,44,516,['n'],1,right,['1'],6,31,[-0.08067093],100,44,hard,plus,dotcolour,alfa,,,129,18,M,R,
399,21,21,9,3,33,47,517,['n'],1,right,['1'],6,66,[-0.07246139],100,47,medium,plus,dotcolour,alfa,,,129,18,M,R,
400,22,22,9,3,36,44,466,['n'],1,right,['1'],6,1015,[-0.00265838],52,44,hard,plus,dotcolour,alfa,,,129,18,M,R,
401,23,23,9,3,27,53,450,['n'],1,right,['1'],6,53,[-0.07144562],100,53,easy,plus,dotcolour,alfa,,,129,18,M,R,
402,24,24,9,3,53,27,1501,['c'],1,left,['1'],6,56,[0.14162122],100,53,easy,plus,dotcolour,alfa,,,129,18,M,R,
403,25,25,9,3,33,47,682,['n'],1,right,['1'],6,84,[-0.12103644],100,47,medium,plus,dotcolour,alfa,,,129,18,M,R,
404,26,26,9,3,47,33,683,['c'],1,left,['1'],6,47,[0.07217234],100,47,medium,plus,dotcolour,alfa,,,129,18,M,R,
405,27,27,9,3,47,33,784,['n'],0,left,['1'],6,95,[-0.0406707],99,47,medium,plus,dotcolour,alfa,,,129,18,M,R,
406,28,28,9,3,47,33,950,['c'],1,left,['1'],6,70,[0.08189683],100,47,medium,plus,dotcolour,alfa,,,129,18,M,R,
407,29,29,9,3,33,47,1367,['n'],1,right,['1'],6,46,[-0.06256161],100,47,medium,plus,dotcolour,alfa,,,129,18,M,R,
408,30,30,9,3,36,44,832,['c'],0,right,['1'],6,36,[0.10391557],100,44,hard,plus,dotcolour,alfa,,,129,18,M,R,
409,31,31,9,3,47,33,816,['c'],1,left,['1'],6,60,[0.08615934],100,47,medium,plus,dotcolour,alfa,,,129,18,M,R,
410,32,32,9,3,27,53,650,['n'],1,right,['1'],6,72,[-0.08904262],100,53,easy,plus,dotcolour,alfa,,,129,18,M,R,
411,33,33,9,3,33,47,700,['n'],1,right,['1'],6,43,[-0.07615425],100,47,medium,plus,dotcolour,alfa,,,129,18,M,R,
412,34,34,9,3,44,36,684,['n'],0,left,['1'],6,143,[-0.05638331],100,44,hard,plus,dotcolour,alfa,,,129,18,M,R,
413,35,35,9,3,53,27,650,['c'],1,left,['1'],6,40,[0.05120811],100,53,easy,plus,dotcolour,alfa,,,129,18,M,R,
414,36,36,9,3,53,27,517,['c'],1,left,['1'],6,91,[0.09498966],100,53,easy,plus,dotcolour,alfa,,,129,18,M,R,
415,37,37,9,3,53,27,634,['c'],1,left,['1'],6,127,[0.10133036],100,53,easy,plus,dotcolour,alfa,,,129,18,M,R,
416,38,38,9,3,27,53,616,['n'],1,right,['1'],6,50,[-0.09579064],100,53,easy,plus,dotcolour,alfa,,,129,18,M,R,
417,39,39,9,3,44,36,1100,['n'],0,left,['1'],6,38,[-0.04757362],100,44,hard,plus,dotcolour,alfa,,,129,18,M,R,
418,40,40,9,3,27,53,650,['n'],1,right,['1'],6,28,[-0.07801492],100,53,easy,plus,dotcolour,alfa,,,129,18,M,R,
419,41,41,9,3,44,36,884,['n'],0,left,['1'],6,17,[-0.07650798],100,44,hard,plus,dotcolour,alfa,,,129,18,M,R,
420,42,0,10,3,44,36,1017,['c'],1,left,['1'],6,103,[0.05822661],100,44,hard,plus,dotcolour,alfa,,,129,18,M,R,
421,43,1,10,3,33,47,584,['n'],1,right,['1'],6,37,[-0.05469886],100,47,medium,plus,dotcolour,alfa,,,129,18,M,R,
422,44,2,10,3,36,44,616,['n'],1,right,['1'],6,44,[-0.07131706],100,44,hard,plus,dotcolour,alfa,,,129,18,M,R,
423,45,3,10,3,36,44,617,['n'],1,right,['1'],6,43,[-0.08283374],100,44,hard,plus,dotcolour,alfa,,,129,18,M,R,
424,46,4,10,3,53,27,668,['c'],1,left,['1'],6,80,[0.10978986],100,53,easy,plus,dotcolour,alfa,,,129,18,M,R,
425,47,5,10,3,33,47,650,['n'],1,right,['1'],6,219,[-0.06852761],99,47,medium,plus,dotcolour,alfa,,,129,18,M,R,
426,48,6,10,3,27,53,467,['n'],1,right,['1'],6,49,[-0.0911259],100,53,easy,plus,dotcolour,alfa,,,129,18,M,R,
427,49,7,10,3,44,36,766,['n'],0,left,['1'],6,66,[-0.132685],100,44,hard,plus,dotcolour,alfa,,,129,18,M,R,
428,50,8,10,3,36,44,567,['n'],1,right,['1'],6,58,[-0.0726515],100,44,hard,plus,dotcolour,alfa,,,129,18,M,R,
429,51,9,10,3,44,36,700,['c'],1,left,['1'],6,77,[0.07167246],100,44,hard,plus,dotcolour,alfa,,,129,18,M,R,
430,52,10,10,3,53,27,717,['c'],1,left,['1'],6,102,[0.03090755],97,53,easy,plus,dotcolour,alfa,,,129,18,M,R,
431,53,11,10,3,44,36,700,['n'],0,left,['1'],6,40,[-0.06549239],100,44,hard,plus,dotcolour,alfa,,,129,18,M,R,
432,54,12,10,3,53,27,684,['c'],1,left,['1'],6,68,[0.052302],100,53,easy,plus,dotcolour,alfa,,,129,18,M,R,
433,55,13,10,3,27,53,567,['n'],1,right,['1'],6,53,[-0.06859839],100,53,easy,plus,dotcolour,alfa,,,129,18,M,R,
434,56,14,10,3,53,27,683,['c'],1,left,['1'],6,24,[0.07871101],100,53,easy,plus,dotcolour,alfa,,,129,18,M,R,
435,57,15,10,3,47,33,585,['c'],1,left,['1'],6,25,[0.08127905],100,47,medium,plus,dotcolour,alfa,,,129,18,M,R,
436,58,16,10,3,36,44,850,['c'],0,right,['1'],6,71,[0.10655602],100,44,hard,plus,dotcolour,alfa,,,129,18,M,R,
437,59,17,10,3,44,36,733,['c'],1,left,['1'],6,48,[0.07892989],100,44,hard,plus,dotcolour,alfa,,,129,18,M,R,
438,60,18,10,3,47,33,633,['c'],1,left,['1'],6,70,[0.09383804],100,47,medium,plus,dotcolour,alfa,,,129,18,M,R,
439,61,19,10,3,53,27,550,['c'],1,left,['1'],6,63,[0.08729916],100,53,easy,plus,dotcolour,alfa,,,129,18,M,R,
440,62,20,10,3,27,53,683,['n'],1,right,['1'],6,26,[-0.06794065],100,53,easy,plus,dotcolour,alfa,,,129,18,M,R,
441,63,21,10,3,44,36,683,['c'],1,left,['1'],6,39,[0.07360572],100,44,hard,plus,dotcolour,alfa,,,129,18,M,R,
442,64,22,10,3,53,27,650,['c'],1,left,['1'],6,37,[0.05394567],100,53,easy,plus,dotcolour,alfa,,,129,18,M,R,
443,65,23,10,3,33,47,650,['n'],1,right,['1'],6,115,[-0.01648256],85,47,medium,plus,dotcolour,alfa,,,129,18,M,R,
444,66,24,10,3,47,33,784,['c'],1,left,['1'],6,40,[0.066681],100,47,medium,plus,dotcolour,alfa,,,129,18,M,R,
445,67,25,10,3,27,53,667,['n'],1,right,['1'],6,61,[-0.06347611],100,53,easy,plus,dotcolour,alfa,,,129,18,M,R,
446,68,26,10,3,53,27,666,['c'],1,left,['1'],6,41,[0.08652961],100,53,easy,plus,dotcolour,alfa,,,129,18,M,R,
447,69,27,10,3,33,47,634,['n'],1,right,['1'],6,79,[-0.11330749],100,47,medium,plus,dotcolour,alfa,,,129,18,M,R,
448,70,28,10,3,27,53,616,['n'],1,right,['1'],6,44,[-0.07663998],100,53,easy,plus,dotcolour,alfa,,,129,18,M,R,
449,71,29,10,3,44,36,700,['c'],1,left,['1'],6,2183,[-0.00234792],49,44,hard,plus,dotcolour,alfa,,,129,18,M,R,
450,72,30,10,3,33,47,666,['n'],1,right,['1'],6,22,[-0.05636492],100,47,medium,plus,dotcolour,alfa,,,129,18,M,R,
451,73,31,10,3,27,53,466,['n'],1,right,['1'],6,44,[-0.12326316],100,53,easy,plus,dotcolour,alfa,,,129,18,M,R,
452,74,32,10,3,36,44,433,['n'],1,right,['1'],6,114,[-0.09674569],100,44,hard,plus,dotcolour,alfa,,,129,18,M,R,
453,75,33,10,3,47,33,684,['c'],1,left,['1'],6,68,[0.06678101],100,47,medium,plus,dotcolour,alfa,,,129,18,M,R,
454,76,34,10,3,47,33,617,['n'],0,left,['1'],6,82,[-0.02536775],96,47,medium,plus,dotcolour,alfa,,,129,18,M,R,
455,77,35,10,3,27,53,550,['n'],1,right,['1'],6,82,[-0.13927682],100,53,easy,plus,dotcolour,alfa,,,129,18,M,R,
456,78,36,10,3,36,44,1217,['n'],1,right,['8'],3,1304,[-0.10174918],96,44,hard,plus,dotcolour,alfa,,,129,18,M,R,
457,79,37,10,3,36,44,533,['n'],1,right,['1'],6,70,[-0.12564394],100,44,hard,plus,dotcolour,alfa,,,129,18,M,R,
458,80,38,10,3,33,47,700,['n'],1,right,['8'],3,105,[-0.06938761],100,47,medium,plus,dotcolour,alfa,,,129,18,M,R,
459,81,39,10,3,47,33,1233,['n'],0,left,['1'],6,61,[-0.10880081],100,47,medium,plus,dotcolour,alfa,,,129,18,M,R,
460,82,40,10,3,47,33,700,['n'],0,left,['1'],6,96,[-0.05442099],100,47,medium,plus,dotcolour,alfa,,,129,18,M,R,
461,83,41,10,3,33,47,650,['n'],1,right,['1'],6,35,[-0.09022674],100,47,medium,plus,dotcolour,alfa,,,129,18,M,R,
462,84,0,11,3,44,36,2151,['c'],1,left,['1'],6,55,[0.0872943],100,44,hard,plus,dotcolour,alfa,,,129,18,M,R,
463,85,1,11,3,36,44,633,['n'],1,right,['1'],6,77,[-0.11302471],100,44,hard,plus,dotcolour,alfa,,,129,18,M,R,
464,86,2,11,3,44,36,634,['n'],0,left,['1'],6,26,[-0.08060899],100,44,hard,plus,dotcolour,alfa,,,129,18,M,R,
465,87,3,11,3,44,36,367,['n'],0,left,['1'],6,75,[-0.02506758],96,44,hard,plus,dotcolour,alfa,,,129,18,M,R,
466,88,4,11,3,33,47,617,['n'],1,right,['1'],6,64,[-0.05803276],100,47,medium,plus,dotcolour,alfa,,,129,18,M,R,
467,89,5,11,3,33,47,1066,['n'],1,right,['1'],6,156,[-0.08887178],100,47,medium,plus,dotcolour,alfa,,,129,18,M,R,
468,90,6,11,3,36,44,2517,['c'],0,right,['1'],6,99,[0.09279529],100,44,hard,plus,dotcolour,alfa,,,129,18,M,R,
469,91,7,11,3,27,53,667,['n'],1,right,['1'],6,45,[-0.08656715],100,53,easy,plus,dotcolour,alfa,,,129,18,M,R,
470,92,8,11,3,27,53,500,['n'],1,right,['1'],6,848,[-0.19741934],100,53,easy,plus,dotcolour,alfa,,,129,18,M,R,
471,93,9,11,3,53,27,950,['c'],1,left,['1'],6,42,[0.07842725],100,53,easy,plus,dotcolour,alfa,,,129,18,M,R,
472,94,10,11,3,44,36,633,['n'],0,left,['1'],6,152,[-0.03015085],94,44,hard,plus,dotcolour,alfa,,,129,18,M,R,
473,95,11,11,3,36,44,716,['n'],1,right,['1'],6,207,[-0.04872813],98,44,hard,plus,dotcolour,alfa,,,129,18,M,R,
474,96,12,11,3,36,44,500,['n'],1,right,['1'],6,91,[-0.03304021],98,44,hard,plus,dotcolour,alfa,,,129,18,M,R,
475,97,13,11,3,44,36,650,['n'],0,left,['1'],6,102,[-0.0853391],100,44,hard,plus,dotcolour,alfa,,,129,18,M,R,
476,98,14,11,3,47,33,783,['c'],1,left,['1'],6,92,[0.08984265],100,47,medium,plus,dotcolour,alfa,,,129,18,M,R,
477,99,15,11,3,53,27,718,['c'],1,left,['1'],6,13,[0.07750362],100,53,easy,plus,dotcolour,alfa,,,129,18,M,R,
478,100,16,11,3,27,53,550,['n'],1,right,['1'],6,136,[-0.11646042],100,53,easy,plus,dotcolour,alfa,,,129,18,M,R,
479,101,17,11,3,33,47,601,['n'],1,right,['1'],6,92,[-0.09402211],100,47,medium,plus,dotcolour,alfa,,,129,18,M,R,
480,102,18,11,3,44,36,717,['c'],1,left,['1'],6,93,[0.05749585],100,44,hard,plus,dotcolour,alfa,,,129,18,M,R,
481,103,19,11,3,33,47,633,['n'],1,right,['1'],6,73,[-0.06969671],100,47,medium,plus,dotcolour,alfa,,,129,18,M,R,
482,104,20,11,3,27,53,600,['n'],1,right,['1'],6,48,[-0.06874178],100,53,easy,plus,dotcolour,alfa,,,129,18,M,R,
483,105,21,11,3,53,27,667,['c'],1,left,['1'],6,52,[0.04840763],100,53,easy,plus,dotcolour,alfa,,,129,18,M,R,
484,106,22,11,3,27,53,616,['n'],1,right,['1'],6,106,[-0.06506139],100,53,easy,plus,dotcolour,alfa,,,129,18,M,R,
485,107,23,11,3,33,47,1250,['n'],1,right,['1'],6,45,[-0.07286623],100,47,medium,plus,dotcolour,alfa,,,129,18,M,R,
486,108,24,11,3,47,33,1001,['n'],0,left,['1'],6,44,[-0.06075519],100,47,medium,plus,dotcolour,alfa,,,129,18,M,R,
487,109,25,11,3,47,33,933,['n'],0,left,['1'],6,78,[-0.07802636],100,47,medium,plus,dotcolour,alfa,,,129,18,M,R,
488,110,26,11,3,47,33,800,['c'],1,left,['1'],6,69,[0.10499277],100,47,medium,plus,dotcolour,alfa,,,129,18,M,R,
489,111,27,11,3,53,27,750,['c'],1,left,['1'],6,78,[0.11026661],100,53,easy,plus,dotcolour,alfa,,,129,18,M,R,
490,112,28,11,3,44,36,684,['c'],1,left,['1'],6,64,[0.04377599],100,44,hard,plus,dotcolour,alfa,,,129,18,M,R,
491,113,29,11,3,53,27,684,['c'],1,left,['1'],6,27,[0.09754227],100,53,easy,plus,dotcolour,alfa,,,129,18,M,R,
492,114,30,11,3,27,53,916,['n'],1,right,['1'],6,30,[-0.09193432],100,53,easy,plus,dotcolour,alfa,,,129,18,M,R,
493,115,31,11,3,53,27,717,['c'],1,left,['1'],6,58,[0.06158805],100,53,easy,plus,dotcolour,alfa,,,129,18,M,R,
494,116,32,11,3,47,33,700,['c'],1,left,['1'],6,68,[0.07668549],100,47,medium,plus,dotcolour,alfa,,,129,18,M,R,
495,117,33,11,3,36,44,734,['c'],0,right,['1'],6,62,[0.09511055],100,44,hard,plus,dotcolour,alfa,,,129,18,M,R,
496,118,34,11,3,27,53,615,['n'],1,right,['1'],6,60,[-0.08755849],100,53,easy,plus,dotcolour,alfa,,,129,18,M,R,
497,119,35,11,3,33,47,733,['n'],1,right,['1'],6,61,[-0.062965],100,47,medium,plus,dotcolour,alfa,,,129,18,M,R,
498,120,36,11,3,47,33,667,['c'],1,left,['1'],6,41,[0.08340335],100,47,medium,plus,dotcolour,alfa,,,129,18,M,R,
499,121,37,11,3,53,27,633,['c'],1,left,['1'],6,56,[0.0846612],100,53,easy,plus,dotcolour,alfa,,,129,18,M,R,
500,122,38,11,3,33,47,599,['n'],1,right,['1'],6,31,[-0.09028492],100,47,medium,plus,dotcolour,alfa,,,129,18,M,R,
501,123,39,11,3,47,33,717,['n'],0,left,['1'],6,50,[-0.04194049],100,47,medium,plus,dotcolour,alfa,,,129,18,M,R,
502,124,40,11,3,36,44,616,['n'],1,right,['1'],6,33,[-0.06114458],100,44,hard,plus,dotcolour,alfa,,,129,18,M,R,
503,125,41,11,3,36,44,534,['n'],1,right,['1'],6,51,[-0.10685104],100,44,hard,plus,dotcolour,alfa,,,129,18,M,R,
504,0,0,12,4,36,44,751,['n'],1,right,['1'],6,69,[-0.09247756],96,44,hard,minus,dotcolour,alfa,,,129,18,M,R,
505,1,1,12,4,47,33,633,['n'],0,left,['1'],6,75,[-0.09420405],96,47,medium,minus,dotcolour,alfa,,,129,18,M,R,
506,2,2,12,4,36,44,550,['n'],1,right,['1'],6,27,[-0.08941109],99,44,hard,minus,dotcolour,alfa,,,129,18,M,R,
507,3,3,12,4,44,36,767,['n'],0,left,['1'],6,108,[-0.01674131],61,44,hard,minus,dotcolour,alfa,,,129,18,M,R,
508,4,4,12,4,53,27,750,['c'],1,left,['1'],6,51,[0.10326056],98,53,easy,minus,dotcolour,alfa,,,129,18,M,R,
509,5,5,12,4,36,44,668,['n'],1,right,['1'],6,64,[-0.04416679],83,44,hard,minus,dotcolour,alfa,,,129,18,M,R,
510,6,6,12,4,36,44,650,['n'],1,right,['1'],6,44,[-0.07297958],96,44,hard,minus,dotcolour,alfa,,,129,18,M,R,
511,7,7,12,4,36,44,783,['n'],1,right,['1'],6,28,[-0.06300012],97,44,hard,minus,dotcolour,alfa,,,129,18,M,R,
512,8,8,12,4,44,36,733,['n'],0,left,['1'],6,39,[-0.09080174],98,44,hard,minus,dotcolour,alfa,,,129,18,M,R,
513,9,9,12,4,36,44,467,['n'],1,right,['1'],6,36,[-0.06739814],96,44,hard,minus,dotcolour,alfa,,,129,18,M,R,
514,10,10,12,4,53,27,683,['c'],1,left,['1'],6,57,[0.09751142],98,53,easy,minus,dotcolour,alfa,,,129,18,M,R,
515,11,11,12,4,33,47,783,['n'],1,right,['1'],6,49,[-0.06837615],94,47,medium,minus,dotcolour,alfa,,,129,18,M,R,
516,12,12,12,4,33,47,633,['n'],1,right,['1'],6,47,[-0.08752036],97,47,medium,minus,dotcolour,alfa,,,129,18,M,R,
517,13,13,12,4,44,36,633,['n'],0,left,['1'],6,60,[-0.03927873],81,44,hard,minus,dotcolour,alfa,,,129,18,M,R,
518,14,14,12,4,53,27,599,['c'],1,left,['1'],6,83,[0.11594918],97,53,easy,minus,dotcolour,alfa,,,129,18,M,R,
519,15,15,12,4,27,53,433,['n'],1,right,['1'],6,56,[-0.08687369],96,53,easy,minus,dotcolour,alfa,,,129,18,M,R,
520,16,16,12,4,47,33,634,['n'],0,left,['1'],6,30,[-0.06496391],97,47,medium,minus,dotcolour,alfa,,,129,18,M,R,
521,17,17,12,4,27,53,417,['n'],1,right,['1'],6,21,[-0.06001758],98,53,easy,minus,dotcolour,alfa,,,129,18,M,R,
522,18,18,12,4,36,44,516,['n'],1,right,['1'],6,9,[-0.08089538],100,44,hard,minus,dotcolour,alfa,,,129,18,M,R,
523,19,19,12,4,53,27,667,['c'],1,left,['1'],6,63,[0.09571046],97,53,easy,minus,dotcolour,alfa,,,129,18,M,R,
524,20,20,12,4,47,33,717,['n'],0,left,['1'],6,25,[-0.05764946],96,47,medium,minus,dotcolour,alfa,,,129,18,M,R,
525,21,21,12,4,27,53,551,['n'],1,right,['1'],6,35,[-0.06512871],96,53,easy,minus,dotcolour,alfa,,,129,18,M,R,
526,22,22,12,4,44,36,734,['c'],1,left,['1'],6,79,[0.06090496],88,44,hard,minus,dotcolour,alfa,,,129,18,M,R,
527,23,23,12,4,47,33,917,['n'],0,left,['1'],6,56,[-0.05431649],89,47,medium,minus,dotcolour,alfa,,,129,18,M,R,
528,24,24,12,4,47,33,650,['n'],0,left,['1'],6,29,[-0.04773202],93,47,medium,minus,dotcolour,alfa,,,129,18,M,R,
529,25,25,12,4,33,47,450,['n'],1,right,['1'],6,43,[-0.07712311],97,47,medium,minus,dotcolour,alfa,,,129,18,M,R,
530,26,26,12,4,53,27,683,['c'],1,left,['1'],6,39,[0.06711934],96,53,easy,minus,dotcolour,alfa,,,129,18,M,R,
531,27,27,12,4,27,53,517,['n'],1,right,['1'],6,26,[-0.05486661],96,53,easy,minus,dotcolour,alfa,,,129,18,M,R,
532,28,28,12,4,27,53,534,['n'],1,right,['1'],6,53,[-0.08181912],96,53,easy,minus,dotcolour,alfa,,,129,18,M,R,
533,29,29,12,4,27,53,500,['n'],1,right,['1'],6,72,[-0.06204355],89,53,easy,minus,dotcolour,alfa,,,129,18,M,R,
534,30,30,12,4,33,47,417,['n'],1,right,['1'],6,86,[-0.06320152],87,47,medium,minus,dotcolour,alfa,,,129,18,M,R,
535,31,31,12,4,47,33,666,['n'],0,left,['1'],6,90,[-0.10887132],96,47,medium,minus,dotcolour,alfa,,,129,18,M,R,
536,32,32,12,4,53,27,767,['c'],1,left,['1'],6,17,[0.06426136],99,53,easy,minus,dotcolour,alfa,,,129,18,M,R,
537,33,33,12,4,33,47,667,['n'],1,right,['1'],6,15,[-0.07826368],100,47,medium,minus,dotcolour,alfa,,,129,18,M,R,
538,34,34,12,4,53,27,666,['c'],1,left,['1'],6,45,[0.03506099],82,53,easy,minus,dotcolour,alfa,,,129,18,M,R,
539,35,35,12,4,33,47,450,['n'],1,right,['1'],6,18,[-0.08738848],100,47,medium,minus,dotcolour,alfa,,,129,18,M,R,
540,36,36,12,4,44,36,500,['n'],0,left,['1'],6,79,[-0.04152314],79,44,hard,minus,dotcolour,alfa,,,129,18,M,R,
541,37,37,12,4,44,36,683,['c'],1,left,['1'],6,34,[0.06463571],96,44,hard,minus,dotcolour,alfa,,,129,18,M,R,
542,38,38,12,4,47,33,967,['c'],1,left,['1'],6,67,[0.10322493],97,47,medium,minus,dotcolour,alfa,,,129,18,M,R,
543,39,39,12,4,27,53,550,['n'],1,right,['1'],6,51,[-0.06931087],94,53,easy,minus,dotcolour,alfa,,,129,18,M,R,
544,40,40,12,4,33,47,750,['c'],0,right,['1'],6,69,[0.0517702],85,47,medium,minus,dotcolour,alfa,,,129,18,M,R,
545,41,41,12,4,44,36,733,['n'],0,left,['1'],6,70,[-0.13181496],99,44,hard,minus,dotcolour,alfa,,,129,18,M,R,
546,42,0,13,4,33,47,701,['n'],1,right,['1'],6,24,[-0.07787465],99,47,medium,minus,dotcolour,alfa,,,129,18,M,R,
547,43,1,13,4,47,33,550,['c'],1,left,['1'],6,74,[0.12351532],98,47,medium,minus,dotcolour,alfa,,,129,18,M,R,
548,44,2,13,4,44,36,633,['c'],1,left,['1'],6,39,[0.07193582],96,44,hard,minus,dotcolour,alfa,,,129,18,M,R,
549,45,3,13,4,47,33,850,['n'],0,left,['1'],6,37,[-0.08057186],98,47,medium,minus,dotcolour,alfa,,,129,18,M,R,
550,46,4,13,4,47,33,850,['c'],1,left,['1'],6,27,[0.07887798],99,47,medium,minus,dotcolour,alfa,,,129,18,M,R,
551,47,5,13,4,44,36,1200,['c'],1,left,['1'],6,67,[0.0543059],87,44,hard,minus,dotcolour,alfa,,,129,18,M,R,
552,48,6,13,4,53,27,984,['n'],0,left,['8'],3,1123,[0.18173653],18,53,easy,minus,dotcolour,alfa,,,129,18,M,R,
553,49,7,13,4,27,53,750,['n'],1,right,['8'],3,1048,[-0.27975054],92,53,easy,minus,dotcolour,alfa,,,129,18,M,R,
554,50,8,13,4,47,33,1167,['n'],0,left,['8'],3,905,[0.09255502],29,47,medium,minus,dotcolour,alfa,,,129,18,M,R,
555,51,9,13,4,44,36,616,['c'],1,left,['1'],6,53,[0.05138639],88,44,hard,minus,dotcolour,alfa,,,129,18,M,R,
556,52,10,13,4,33,47,651,['n'],1,right,['1'],6,18,[-0.06772846],99,47,medium,minus,dotcolour,alfa,,,129,18,M,R,
557,53,11,13,4,27,53,517,['n'],1,right,['1'],6,47,[-0.07277304],95,53,easy,minus,dotcolour,alfa,,,129,18,M,R,
558,54,12,13,4,53,27,517,['c'],1,left,['1'],6,49,[0.08068169],96,53,easy,minus,dotcolour,alfa,,,129,18,M,R,
559,55,13,13,4,53,27,533,['c'],1,left,['1'],6,75,[0.0624073],89,53,easy,minus,dotcolour,alfa,,,129,18,M,R,
560,56,14,13,4,27,53,533,['n'],1,right,['1'],6,76,[-0.07393201],92,53,easy,minus,dotcolour,alfa,,,129,18,M,R,
561,57,15,13,4,36,44,600,['n'],1,right,['1'],6,34,[-0.08284686],98,44,hard,minus,dotcolour,alfa,,,129,18,M,R,
562,58,16,13,4,36,44,701,['n'],1,right,['1'],6,62,[-0.09030705],96,44,hard,minus,dotcolour,alfa,,,129,18,M,R,
563,59,17,13,4,33,47,950,['n'],1,right,['1'],6,39,[-0.06084333],94,47,medium,minus,dotcolour,alfa,,,129,18,M,R,
564,60,18,13,4,47,33,600,['n'],0,left,['1'],6,46,[-0.10004753],99,47,medium,minus,dotcolour,alfa,,,129,18,M,R,
565,61,19,13,4,27,53,484,['n'],1,right,['1'],6,26,[-0.064106],97,53,easy,minus,dotcolour,alfa,,,129,18,M,R,
566,62,20,13,4,44,36,801,['c'],1,left,['1'],6,426,[0.00350011],51,44,hard,minus,dotcolour,alfa,,,129,18,M,R,
567,63,21,13,4,53,27,766,['c'],1,left,['1'],6,60,[0.04530966],84,53,easy,minus,dotcolour,alfa,,,129,18,M,R,
568,64,22,13,4,33,47,601,['n'],1,right,['1'],6,50,[-0.08206466],96,47,medium,minus,dotcolour,alfa,,,129,18,M,R,
569,65,23,13,4,33,47,534,['n'],1,right,['1'],6,52,[-0.06798985],94,47,medium,minus,dotcolour,alfa,,,129,18,M,R,
570,66,24,13,4,44,36,516,['n'],0,left,['1'],6,55,[-0.04854975],87,44,hard,minus,dotcolour,alfa,,,129,18,M,R,
571,67,25,13,4,47,33,567,['n'],0,left,['1'],6,47,[-0.07631592],96,47,medium,minus,dotcolour,alfa,,,129,18,M,R,
572,68,26,13,4,53,27,584,['c'],1,left,['1'],6,80,[0.03812817],77,53,easy,minus,dotcolour,alfa,,,129,18,M,R,
573,69,27,13,4,36,44,550,['c'],0,right,['1'],6,1840,[-0.17807066],23,44,hard,minus,dotcolour,alfa,,,129,18,M,R,
574,70,28,13,4,33,47,684,['n'],1,right,['1'],6,12,[-0.07653691],100,47,medium,minus,dotcolour,alfa,,,129,18,M,R,
575,71,29,13,4,36,44,700,['n'],1,right,['1'],6,72,[-0.08097607],94,44,hard,minus,dotcolour,alfa,,,129,18,M,R,
576,72,30,13,4,44,36,467,['n'],0,left,['1'],6,244,[-0.03571125],66,44,hard,minus,dotcolour,alfa,,,129,18,M,R,
577,73,31,13,4,27,53,717,['n'],1,right,['1'],6,55,[-0.07706597],95,53,easy,minus,dotcolour,alfa,,,129,18,M,R,
578,74,32,13,4,36,44,667,['n'],1,right,['1'],6,12,[-0.08588172],100,44,hard,minus,dotcolour,alfa,,,129,18,M,R,
579,75,33,13,4,47,33,717,['c'],1,left,['1'],6,48,[0.07054379],95,47,medium,minus,dotcolour,alfa,,,129,18,M,R,
580,76,34,13,4,53,27,635,['c'],1,left,['1'],6,54,[0.09002873],97,53,easy,minus,dotcolour,alfa,,,129,18,M,R,
581,77,35,13,4,36,44,567,['n'],1,right,['1'],6,78,[-0.09875055],96,44,hard,minus,dotcolour,alfa,,,129,18,M,R,
582,78,36,13,4,27,53,533,['n'],1,right,['1'],6,80,[-0.07982868],93,53,easy,minus,dotcolour,alfa,,,129,18,M,R,
583,79,37,13,4,36,44,601,['c'],0,right,['1'],6,45,[0.10573734],99,44,hard,minus,dotcolour,alfa,,,129,18,M,R,
584,80,38,13,4,53,27,784,['c'],1,left,['1'],6,45,[0.02497483],74,53,easy,minus,dotcolour,alfa,,,129,18,M,R,
585,81,39,13,4,33,47,583,['n'],1,right,['1'],6,101,[-0.12468308],97,47,medium,minus,dotcolour,alfa,,,129,18,M,R,
586,82,40,13,4,44,36,800,['c'],1,left,['1'],6,50,[0.09422504],98,44,hard,minus,dotcolour,alfa,,,129,18,M,R,
587,83,41,13,4,27,53,650,['n'],1,right,['1'],6,79,[-0.10235491],96,53,easy,minus,dotcolour,alfa,,,129,18,M,R,
588,84,0,14,4,53,27,750,['c'],1,left,['1'],6,37,[0.09368731],99,53,easy,minus,dotcolour,alfa,,,129,18,M,R,
589,85,1,14,4,27,53,583,['n'],1,right,['1'],6,54,[-0.04742692],86,53,easy,minus,dotcolour,alfa,,,129,18,M,R,
590,86,2,14,4,53,27,633,['c'],1,left,['1'],6,36,[0.07436824],97,53,easy,minus,dotcolour,alfa,,,129,18,M,R,
591,87,3,14,4,33,47,484,['n'],1,right,['1'],6,104,[-0.06602655],86,47,medium,minus,dotcolour,alfa,,,129,18,M,R,
592,88,4,14,4,47,33,650,['c'],1,left,['1'],6,12,[0.0900406],100,47,medium,minus,dotcolour,alfa,,,129,18,M,R,
593,89,5,14,4,36,44,1067,['n'],1,right,['1'],6,146,[-0.06103581],81,44,hard,minus,dotcolour,alfa,,,129,18,M,R,
594,90,6,14,4,36,44,650,['n'],1,right,['1'],6,60,[-0.09569102],97,44,hard,minus,dotcolour,alfa,,,129,18,M,R,
595,91,7,14,4,44,36,617,['c'],1,left,['1'],6,57,[0.04897025],86,44,hard,minus,dotcolour,alfa,,,129,18,M,R,
596,92,8,14,4,36,44,617,['n'],1,right,['1'],6,55,[-0.09679756],98,44,hard,minus,dotcolour,alfa,,,129,18,M,R,
597,93,9,14,4,53,27,684,['c'],1,left,['1'],6,51,[0.06019626],92,53,easy,minus,dotcolour,alfa,,,129,18,M,R,
598,94,10,14,4,33,47,584,['n'],1,right,['1'],6,43,[-0.07314198],96,47,medium,minus,dotcolour,alfa,,,129,18,M,R,
599,95,11,14,4,33,47,667,['n'],1,right,['1'],6,32,[-0.05229077],93,47,medium,minus,dotcolour,alfa,,,129,18,M,R,
600,96,12,14,4,33,47,450,['n'],1,right,['1'],6,62,[-0.07772133],94,47,medium,minus,dotcolour,alfa,,,129,18,M,R,
601,97,13,14,4,27,53,516,['n'],1,right,['1'],6,40,[-0.06907018],96,53,easy,minus,dotcolour,alfa,,,129,18,M,R,
602,98,14,14,4,53,27,583,['c'],1,left,['1'],6,57,[0.05487857],89,53,easy,minus,dotcolour,alfa,,,129,18,M,R,
603,99,15,14,4,47,33,833,['n'],0,left,['1'],6,86,[-0.07630697],91,47,medium,minus,dotcolour,alfa,,,129,18,M,R,
604,100,16,14,4,47,33,733,['c'],1,left,['1'],6,23,[0.05790063],97,47,medium,minus,dotcolour,alfa,,,129,18,M,R,
605,101,17,14,4,47,33,567,['c'],1,left,['1'],6,25,[0.0841974],99,47,medium,minus,dotcolour,alfa,,,129,18,M,R,
606,102,18,14,4,27,53,717,['n'],1,right,['1'],6,85,[-0.07196799],90,53,easy,minus,dotcolour,alfa,,,129,18,M,R,
607,103,19,14,4,47,33,483,['c'],1,left,['9'],2,1967,[0.28822097],86,47,medium,minus,dotcolour,alfa,,,129,18,M,R,
608,104,20,14,4,44,36,667,['n'],0,left,['1'],6,54,[-0.06393778],92,44,hard,minus,dotcolour,alfa,,,129,18,M,R,
609,105,21,14,4,53,27,517,['n'],0,left,['1'],6,57,[-0.10128501],98,53,easy,minus,dotcolour,alfa,,,129,18,M,R,
610,106,22,14,4,44,36,700,['n'],0,left,['1'],6,1068,[0.1451607],22,44,hard,minus,dotcolour,alfa,,,129,18,M,R,
611,107,23,14,4,47,33,1251,['c'],1,left,['8'],3,200,[0.17121258],97,47,medium,minus,dotcolour,alfa,,,129,18,M,R,
612,108,24,14,4,44,36,984,['n'],0,left,['1'],6,74,[-0.00995362],58,44,hard,minus,dotcolour,alfa,,,129,18,M,R,
613,109,25,14,4,36,44,600,['n'],1,right,['1'],6,56,[-0.0472083],86,44,hard,minus,dotcolour,alfa,,,129,18,M,R,
614,110,26,14,4,53,27,1034,['c'],1,left,['1'],6,78,[0.10041999],96,53,easy,minus,dotcolour,alfa,,,129,18,M,R,
615,111,27,14,4,33,47,634,['n'],1,right,['1'],6,74,[-0.04460587],81,47,medium,minus,dotcolour,alfa,,,129,18,M,R,
616,112,28,14,4,44,36,584,['n'],0,left,['1'],6,65,[-0.0109619],60,44,hard,minus,dotcolour,alfa,,,129,18,M,R,
617,113,29,14,4,27,53,617,['n'],1,right,['1'],6,215,[-0.08021662],83,53,easy,minus,dotcolour,alfa,,,129,18,M,R,
618,114,30,14,4,27,53,450,['n'],1,right,['1'],6,70,[-0.09997779],97,53,easy,minus,dotcolour,alfa,,,129,18,M,R,
619,115,31,14,4,36,44,383,['n'],1,right,['1'],6,37,[-0.08085229],98,44,hard,minus,dotcolour,alfa,,,129,18,M,R,
620,116,32,14,4,33,47,434,['n'],1,right,['1'],6,84,[-0.03922103],77,47,medium,minus,dotcolour,alfa,,,129,18,M,R,
621,117,33,14,4,44,36,400,['n'],0,left,['1'],6,946,[-0.03714639],59,44,hard,minus,dotcolour,alfa,,,129,18,M,R,
622,118,34,14,4,44,36,667,['c'],1,left,['1'],6,27,[0.07088458],98,44,hard,minus,dotcolour,alfa,,,129,18,M,R,
623,119,35,14,4,36,44,550,['n'],1,right,['1'],6,61,[-0.08648893],96,44,hard,minus,dotcolour,alfa,,,129,18,M,R,
624,120,36,14,4,47,33,501,['c'],1,left,['1'],6,39,[0.0441975],88,47,medium,minus,dotcolour,alfa,,,129,18,M,R,
625,121,37,14,4,27,53,1116,['n'],1,right,['1'],6,98,[-0.05924574],85,53,easy,minus,dotcolour,alfa,,,129,18,M,R,
626,122,38,14,4,27,53,1683,['n'],1,right,['1'],6,77,[-0.0916846],95,53,easy,minus,dotcolour,alfa,,,129,18,M,R,
627,123,39,14,4,33,47,601,['n'],1,right,['1'],6,35,[-0.08795225],99,47,medium,minus,dotcolour,alfa,,,129,18,M,R,
628,124,40,14,4,36,44,567,['n'],1,right,['1'],6,68,[-0.05796191],88,44,hard,minus,dotcolour,alfa,,,129,18,M,R,
629,125,41,14,4,53,27,684,['c'],1,left,['1'],6,55,[0.11937492],99,53,easy,minus,dotcolour,alfa,,,129,18,M,R,
630,0,0,15,5,53,27,668,['n'],0,left,['1'],6,76,[-0.00713915],72,53,easy,plus,dotcolour,alfa,,,129,18,M,R,
631,1,1,15,5,36,44,602,['n'],1,right,['1'],6,130,[-0.11880464],100,44,hard,plus,dotcolour,alfa,,,129,18,M,R,
632,2,2,15,5,53,27,701,['c'],1,left,['1'],6,26,[0.05722733],100,53,easy,plus,dotcolour,alfa,,,129,18,M,R,
633,3,3,15,5,27,53,550,['n'],1,right,['1'],6,76,[-0.11761321],100,53,easy,plus,dotcolour,alfa,,,129,18,M,R,
634,4,4,15,5,47,33,1400,['c'],1,left,['1'],6,26,[0.06513997],100,47,medium,plus,dotcolour,alfa,,,129,18,M,R,
635,5,5,15,5,27,53,483,['n'],1,right,['1'],6,55,[-0.07589181],100,53,easy,plus,dotcolour,alfa,,,129,18,M,R,
636,6,6,15,5,44,36,700,['n'],0,left,['1'],6,58,[-0.05173152],100,44,hard,plus,dotcolour,alfa,,,129,18,M,R,
637,7,7,15,5,53,27,582,['c'],1,left,['1'],6,42,[0.10453215],100,53,easy,plus,dotcolour,alfa,,,129,18,M,R,
638,8,8,15,5,27,53,567,['n'],1,right,['1'],6,50,[-0.07177158],100,53,easy,plus,dotcolour,alfa,,,129,18,M,R,
639,9,9,15,5,36,44,467,['n'],1,right,['1'],6,71,[-0.0405937],100,44,hard,plus,dotcolour,alfa,,,129,18,M,R,
640,10,10,15,5,33,47,417,['n'],1,right,['1'],6,77,[-0.06265554],100,47,medium,plus,dotcolour,alfa,,,129,18,M,R,
641,11,11,15,5,53,27,684,['c'],1,left,['1'],6,39,[0.07549564],100,53,easy,plus,dotcolour,alfa,,,129,18,M,R,
642,12,12,15,5,36,44,450,['n'],1,right,['1'],6,37,[-0.08898692],100,44,hard,plus,dotcolour,alfa,,,129,18,M,R,
643,13,13,15,5,44,36,734,['n'],0,left,['1'],6,73,[-0.08134121],100,44,hard,plus,dotcolour,alfa,,,129,18,M,R,
644,14,14,15,5,33,47,633,['n'],1,right,['1'],6,61,[-0.05098424],100,47,medium,plus,dotcolour,alfa,,,129,18,M,R,
645,15,15,15,5,44,36,650,['c'],1,left,['1'],6,106,[0.10569554],100,44,hard,plus,dotcolour,alfa,,,129,18,M,R,
646,16,16,15,5,53,27,650,['c'],1,left,['1'],6,45,[0.06334101],100,53,easy,plus,dotcolour,alfa,,,129,18,M,R,
647,17,17,15,5,36,44,451,['n'],1,right,['1'],6,74,[-0.11167158],100,44,hard,plus,dotcolour,alfa,,,129,18,M,R,
648,18,18,15,5,33,47,650,['n'],1,right,['1'],6,94,[-0.14660693],100,47,medium,plus,dotcolour,alfa,,,129,18,M,R,
649,19,19,15,5,47,33,667,['c'],1,left,['1'],6,41,[0.08328169],100,47,medium,plus,dotcolour,alfa,,,129,18,M,R,
650,20,20,15,5,44,36,633,['c'],1,left,['1'],6,87,[0.0530459],100,44,hard,plus,dotcolour,alfa,,,129,18,M,R,
651,21,21,15,5,53,27,667,['c'],1,left,['1'],6,50,[0.03922835],100,53,easy,plus,dotcolour,alfa,,,129,18,M,R,
652,22,22,15,5,36,44,516,['n'],1,right,['1'],6,53,[-0.1099877],100,44,hard,plus,dotcolour,alfa,,,129,18,M,R,
653,23,23,15,5,27,53,634,['n'],1,right,['1'],6,67,[-0.05316604],100,53,easy,plus,dotcolour,alfa,,,129,18,M,R,
654,24,24,15,5,33,47,567,['n'],1,right,['1'],6,83,[-0.07693544],100,47,medium,plus,dotcolour,alfa,,,129,18,M,R,
655,25,25,15,5,27,53,667,['n'],1,right,['1'],6,38,[-0.05835039],100,53,easy,plus,dotcolour,alfa,,,129,18,M,R,
656,26,26,15,5,44,36,766,['n'],0,left,['1'],6,63,[-0.06238623],100,44,hard,plus,dotcolour,alfa,,,129,18,M,R,
657,27,27,15,5,33,47,533,['n'],1,right,['1'],6,57,[-0.10871105],100,47,medium,plus,dotcolour,alfa,,,129,18,M,R,
658,28,28,15,5,53,27,616,['c'],1,left,['1'],6,407,[0.08236721],99,53,easy,plus,dotcolour,alfa,,,129,18,M,R,
659,29,29,15,5,47,33,700,['n'],0,left,['1'],6,28,[-0.05454079],100,47,medium,plus,dotcolour,alfa,,,129,18,M,R,
660,30,30,15,5,36,44,934,['c'],0,right,['1'],6,6,[0.07215991],100,44,hard,plus,dotcolour,alfa,,,129,18,M,R,
661,31,31,15,5,36,44,483,['n'],1,right,['1'],6,44,[-0.09689444],100,44,hard,plus,dotcolour,alfa,,,129,18,M,R,
662,32,32,15,5,47,33,617,['c'],1,left,['1'],6,59,[0.08595921],100,47,medium,plus,dotcolour,alfa,,,129,18,M,R,
663,33,33,15,5,47,33,733,['n'],0,left,['1'],6,68,[-0.11120532],100,47,medium,plus,dotcolour,alfa,,,129,18,M,R,
664,34,34,15,5,27,53,666,['n'],1,right,['1'],6,80,[-0.06355],100,53,easy,plus,dotcolour,alfa,,,129,18,M,R,
665,35,35,15,5,33,47,649,['n'],1,right,['1'],6,68,[-0.04186157],100,47,medium,plus,dotcolour,alfa,,,129,18,M,R,
666,36,36,15,5,44,36,617,['n'],0,left,['1'],6,58,[-0.11223647],100,44,hard,plus,dotcolour,alfa,,,129,18,M,R,
667,37,37,15,5,44,36,667,['c'],1,left,['1'],6,63,[0.10328909],100,44,hard,plus,dotcolour,alfa,,,129,18,M,R,
668,38,38,15,5,47,33,802,['c'],1,left,['1'],6,45,[0.077209],100,47,medium,plus,dotcolour,alfa,,,129,18,M,R,
669,39,39,15,5,47,33,850,['n'],0,left,['1'],6,51,[-0.07340242],100,47,medium,plus,dotcolour,alfa,,,129,18,M,R,
670,40,40,15,5,27,53,633,['n'],1,right,['1'],6,73,[-0.07900799],100,53,easy,plus,dotcolour,alfa,,,129,18,M,R,
671,41,41,15,5,33,47,466,['n'],1,right,['1'],6,76,[-0.08580734],100,47,medium,plus,dotcolour,alfa,,,129,18,M,R,
672,42,0,16,5,53,27,750,['c'],1,left,['1'],6,51,[0.10120526],100,53,easy,plus,dotcolour,alfa,,,129,18,M,R,
673,43,1,16,5,53,27,701,['c'],1,left,['1'],6,38,[0.07343107],100,53,easy,plus,dotcolour,alfa,,,129,18,M,R,
674,44,2,16,5,47,33,684,['n'],0,left,['1'],6,115,[-0.05930221],100,47,medium,plus,dotcolour,alfa,,,129,18,M,R,
675,45,3,16,5,53,27,600,['c'],1,left,['1'],6,104,[0.10411213],100,53,easy,plus,dotcolour,alfa,,,129,18,M,R,
676,46,4,16,5,36,44,650,['n'],1,right,['1'],6,59,[-0.07342733],100,44,hard,plus,dotcolour,alfa,,,129,18,M,R,
677,47,5,16,5,44,36,732,['c'],1,left,['1'],6,76,[0.05203418],100,44,hard,plus,dotcolour,alfa,,,129,18,M,R,
678,48,6,16,5,36,44,600,['n'],1,right,['1'],6,58,[-0.04179076],100,44,hard,plus,dotcolour,alfa,,,129,18,M,R,
679,49,7,16,5,47,33,534,['c'],1,left,['1'],6,20,[0.08083761],100,47,medium,plus,dotcolour,alfa,,,129,18,M,R,
680,50,8,16,5,27,53,767,['n'],1,right,['1'],6,53,[-0.11264329],100,53,easy,plus,dotcolour,alfa,,,129,18,M,R,
681,51,9,16,5,33,47,550,['n'],1,right,['1'],6,87,[-0.02981549],97,47,medium,plus,dotcolour,alfa,,,129,18,M,R,
682,52,10,16,5,33,47,582,['n'],1,right,['1'],6,102,[-0.13617505],100,47,medium,plus,dotcolour,alfa,,,129,18,M,R,
683,53,11,16,5,44,36,633,['n'],0,left,['1'],6,81,[-0.05265497],100,44,hard,plus,dotcolour,alfa,,,129,18,M,R,
684,54,12,16,5,47,33,616,['c'],1,left,['1'],6,72,[0.07695589],100,47,medium,plus,dotcolour,alfa,,,129,18,M,R,
685,55,13,16,5,27,53,433,['n'],1,right,['1'],6,100,[-0.10073874],100,53,easy,plus,dotcolour,alfa,,,129,18,M,R,
686,56,14,16,5,53,27,667,['c'],1,left,['1'],6,15,[0.06547842],100,53,easy,plus,dotcolour,alfa,,,129,18,M,R,
687,57,15,16,5,44,36,784,['n'],0,left,['1'],6,120,[-0.06630162],100,44,hard,plus,dotcolour,alfa,,,129,18,M,R,
688,58,16,16,5,47,33,617,['c'],1,left,['1'],6,20,[0.08675763],100,47,medium,plus,dotcolour,alfa,,,129,18,M,R,
689,59,17,16,5,27,53,550,['n'],1,right,['1'],6,79,[-0.07374475],100,53,easy,plus,dotcolour,alfa,,,129,18,M,R,
690,60,18,16,5,44,36,701,['n'],0,left,['1'],6,73,[-0.09964283],100,44,hard,plus,dotcolour,alfa,,,129,18,M,R,
691,61,19,16,5,47,33,683,['c'],1,left,['1'],6,68,[0.10391461],100,47,medium,plus,dotcolour,alfa,,,129,18,M,R,
692,62,20,16,5,44,36,734,['n'],0,left,['1'],6,110,[-0.06133418],100,44,hard,plus,dotcolour,alfa,,,129,18,M,R,
693,63,21,16,5,47,33,600,['n'],0,left,['1'],6,98,[-0.04424978],99,47,medium,plus,dotcolour,alfa,,,129,18,M,R,
694,64,22,16,5,27,53,500,['n'],1,right,['1'],6,83,[-0.07348001],100,53,easy,plus,dotcolour,alfa,,,129,18,M,R,
695,65,23,16,5,33,47,600,['n'],1,right,['1'],6,65,[-0.07206489],100,47,medium,plus,dotcolour,alfa,,,129,18,M,R,
696,66,24,16,5,33,47,450,['n'],1,right,['1'],6,94,[-0.06300945],100,47,medium,plus,dotcolour,alfa,,,129,18,M,R,
697,67,25,16,5,44,36,617,['n'],0,left,['1'],6,75,[-0.06540968],100,44,hard,plus,dotcolour,alfa,,,129,18,M,R,
698,68,26,16,5,36,44,917,['c'],0,right,['1'],6,92,[0.0415667],99,44,hard,plus,dotcolour,alfa,,,129,18,M,R,
699,69,27,16,5,27,53,517,['n'],1,right,['1'],6,85,[-0.07009609],100,53,easy,plus,dotcolour,alfa,,,129,18,M,R,
700,70,28,16,5,33,47,600,['n'],1,right,['1'],6,43,[-0.1079528],100,47,medium,plus,dotcolour,alfa,,,129,18,M,R,
701,71,29,16,5,27,53,701,['n'],1,right,['1'],6,103,[-0.07564682],100,53,easy,plus,dotcolour,alfa,,,129,18,M,R,
702,72,30,16,5,53,27,635,['n'],0,left,['1'],6,74,[-0.05046209],100,53,easy,plus,dotcolour,alfa,,,129,18,M,R,
703,73,31,16,5,27,53,450,['n'],1,right,['1'],6,342,[-0.14953029],100,53,easy,plus,dotcolour,alfa,,,129,18,M,R,
704,74,32,16,5,36,44,850,['n'],1,right,['1'],6,64,[-0.03307142],99,44,hard,plus,dotcolour,alfa,,,129,18,M,R,
705,75,33,16,5,53,27,567,['c'],1,left,['1'],6,24,[0.08055421],100,53,easy,plus,dotcolour,alfa,,,129,18,M,R,
706,76,34,16,5,36,44,566,['n'],1,right,['1'],6,50,[-0.0345486],100,44,hard,plus,dotcolour,alfa,,,129,18,M,R,
707,77,35,16,5,36,44,533,['n'],1,right,['1'],6,59,[-0.05099111],100,44,hard,plus,dotcolour,alfa,,,129,18,M,R,
708,78,36,16,5,44,36,501,['n'],0,left,['1'],6,78,[-0.07876089],100,44,hard,plus,dotcolour,alfa,,,129,18,M,R,
709,79,37,16,5,33,47,450,['n'],1,right,['1'],6,58,[-0.11140088],100,47,medium,plus,dotcolour,alfa,,,129,18,M,R,
710,80,38,16,5,47,33,500,['n'],0,left,['1'],6,93,[-0.04026545],99,47,medium,plus,dotcolour,alfa,,,129,18,M,R,
711,81,39,16,5,33,47,452,['n'],1,right,['1'],6,56,[-0.02744025],98,47,medium,plus,dotcolour,alfa,,,129,18,M,R,
712,82,40,16,5,53,27,717,['c'],1,left,['1'],6,91,[0.08537334],100,53,easy,plus,dotcolour,alfa,,,129,18,M,R,
713,83,41,16,5,36,44,716,['n'],1,right,['1'],6,36,[-0.08862513],100,44,hard,plus,dotcolour,alfa,,,129,18,M,R,
714,84,0,17,5,33,47,701,['n'],1,right,['1'],6,102,[-0.07067896],100,47,medium,plus,dotcolour,alfa,,,129,18,M,R,
715,85,1,17,5,36,44,584,['n'],1,right,['1'],6,53,[-0.06786815],100,44,hard,plus,dotcolour,alfa,,,129,18,M,R,
716,86,2,17,5,44,36,366,['n'],0,left,['1'],6,54,[-0.06798411],100,44,hard,plus,dotcolour,alfa,,,129,18,M,R,
717,87,3,17,5,47,33,700,['n'],0,left,['1'],6,65,[-0.06377551],100,47,medium,plus,dotcolour,alfa,,,129,18,M,R,
718,88,4,17,5,53,27,650,['c'],1,left,['1'],6,77,[0.127603],100,53,easy,plus,dotcolour,alfa,,,129,18,M,R,
719,89,5,17,5,27,53,702,['n'],1,right,['1'],6,96,[-0.09020324],100,53,easy,plus,dotcolour,alfa,,,129,18,M,R,
720,90,6,17,5,53,27,567,['c'],1,left,['1'],6,22,[0.09589855],100,53,easy,plus,dotcolour,alfa,,,129,18,M,R,
721,91,7,17,5,44,36,700,['n'],0,left,['1'],6,35,[-0.06700809],100,44,hard,plus,dotcolour,alfa,,,129,18,M,R,
722,92,8,17,5,44,36,817,['c'],1,left,['1'],6,58,[0.10714259],100,44,hard,plus,dotcolour,alfa,,,129,18,M,R,
723,93,9,17,5,27,53,449,['n'],1,right,['1'],6,79,[-0.10669463],100,53,easy,plus,dotcolour,alfa,,,129,18,M,R,
724,94,10,17,5,33,47,800,['n'],1,right,['1'],6,118,[0.01911307],12,47,medium,plus,dotcolour,alfa,,,129,18,M,R,
725,95,11,17,5,36,44,468,['n'],1,right,['1'],6,31,[-0.06013903],100,44,hard,plus,dotcolour,alfa,,,129,18,M,R,
726,96,12,17,5,36,44,667,['n'],1,right,['1'],6,68,[-0.08030016],100,44,hard,plus,dotcolour,alfa,,,129,18,M,R,
727,97,13,17,5,44,36,600,['n'],0,left,['1'],6,43,[-0.07640141],100,44,hard,plus,dotcolour,alfa,,,129,18,M,R,
728,98,14,17,5,53,27,667,['c'],1,left,['1'],6,23,[0.06029155],100,53,easy,plus,dotcolour,alfa,,,129,18,M,R,
729,99,15,17,5,44,36,634,['c'],1,left,['1'],6,31,[0.07463794],100,44,hard,plus,dotcolour,alfa,,,129,18,M,R,
730,100,16,17,5,27,53,433,['n'],1,right,['1'],6,62,[-0.06947606],100,53,easy,plus,dotcolour,alfa,,,129,18,M,R,
731,101,17,17,5,33,47,484,['n'],1,right,['1'],6,57,[-0.08675784],100,47,medium,plus,dotcolour,alfa,,,129,18,M,R,
732,102,18,17,5,33,47,617,['n'],1,right,['1'],6,55,[-0.06697185],100,47,medium,plus,dotcolour,alfa,,,129,18,M,R,
733,103,19,17,5,47,33,651,['c'],1,left,['1'],6,45,[0.0952596],100,47,medium,plus,dotcolour,alfa,,,129,18,M,R,
734,104,20,17,5,44,36,983,['c'],1,left,['1'],6,12,[0.07320363],100,44,hard,plus,dotcolour,alfa,,,129,18,M,R,
735,105,21,17,5,47,33,550,['n'],0,left,['1'],6,71,[-0.02177411],95,47,medium,plus,dotcolour,alfa,,,129,18,M,R,
736,106,22,17,5,47,33,666,['n'],0,left,['1'],6,83,[-0.05783483],100,47,medium,plus,dotcolour,alfa,,,129,18,M,R,
737,107,23,17,5,33,47,849,['c'],0,right,['1'],6,663,[0.15508156],100,47,medium,plus,dotcolour,alfa,,,129,18,M,R,
738,108,24,17,5,27,53,4383,['n'],1,right,['1'],6,47,[-0.08817864],100,53,easy,plus,dotcolour,alfa,,,129,18,M,R,
739,109,25,17,5,36,44,701,['n'],1,right,['1'],6,42,[-0.07018975],100,44,hard,plus,dotcolour,alfa,,,129,18,M,R,
740,110,26,17,5,33,47,633,['n'],1,right,['1'],6,40,[-0.07088199],100,47,medium,plus,dotcolour,alfa,,,129,18,M,R,
741,111,27,17,5,36,44,983,['n'],1,right,['1'],6,73,[-0.04370082],100,44,hard,plus,dotcolour,alfa,,,129,18,M,R,
742,112,28,17,5,33,47,600,['n'],1,right,['1'],6,55,[-0.07404591],100,47,medium,plus,dotcolour,alfa,,,129,18,M,R,
743,113,29,17,5,53,27,900,['c'],1,left,['1'],6,27,[0.0868629],100,53,easy,plus,dotcolour,alfa,,,129,18,M,R,
744,114,30,17,5,44,36,799,['c'],1,left,['1'],6,90,[0.04351499],99,44,hard,plus,dotcolour,alfa,,,129,18,M,R,
745,115,31,17,5,53,27,667,['c'],1,left,['1'],6,102,[0.1078853],100,53,easy,plus,dotcolour,alfa,,,129,18,M,R,
746,116,32,17,5,47,33,750,['c'],1,left,['1'],6,36,[0.08728858],100,47,medium,plus,dotcolour,alfa,,,129,18,M,R,
747,117,33,17,5,47,33,683,['c'],1,left,['1'],6,89,[0.09194995],100,47,medium,plus,dotcolour,alfa,,,129,18,M,R,
748,118,34,17,5,27,53,634,['n'],1,right,['1'],6,142,[-0.09654327],100,53,easy,plus,dotcolour,alfa,,,129,18,M,R,
749,119,35,17,5,36,44,667,['n'],1,right,['1'],6,126,[-0.1702618],100,44,hard,plus,dotcolour,alfa,,,129,18,M,R,
750,120,36,17,5,53,27,667,['c'],1,left,['1'],6,40,[0.09317937],100,53,easy,plus,dotcolour,alfa,,,129,18,M,R,
751,121,37,17,5,36,44,883,['c'],0,right,['1'],6,45,[0.0478944],100,44,hard,plus,dotcolour,alfa,,,129,18,M,R,
752,122,38,17,5,27,53,567,['n'],1,right,['1'],6,85,[-0.04774336],100,53,easy,plus,dotcolour,alfa,,,129,18,M,R,
753,123,39,17,5,53,27,534,['c'],1,left,['1'],6,14,[0.07693712],100,53,easy,plus,dotcolour,alfa,,,129,18,M,R,
754,124,40,17,5,47,33,650,['c'],1,left,['1'],6,76,[0.04979647],100,47,medium,plus,dotcolour,alfa,,,129,18,M,R,
755,125,41,17,5,27,53,551,['n'],1,right,['1'],6,84,[-0.09326718],100,53,easy,plus,dotcolour,alfa,,,129,18,M,R,
,,,,,,,,,,,,,,,,,,,,,1,,129,18,M,R,
,,,,,,,,,,,,,,,,,,,,,2,['h'],129,18,M,R,
,,,,,,,,,,,,,,,,,,,,,3,['d'],129,18,M,R,
,,,,,,,,,,,,,,,,,,,,,5,[],129,18,M,R,
