trial,withinphasetrial,withinblocktrial,block,phase,dotsLeft,dotsRight,rt,resp,cor,cresp,conf_press,cj,RTconf,ev,fb,diff,difflevel,condition,task,manip,questionID,questionResp,sub,age,gender,handedness,
0,0,0,0,0,33,47,2067,['n'],1,right,['2'],5,2785,[-0.42415329],100,47,medium,plus,dotcolour,alfa,,,124,18,M,R,
1,1,1,0,0,47,33,2333,['c'],1,left,['1'],6,4476,[0.24046526],98,47,medium,plus,dotcolour,alfa,,,124,18,M,R,
2,2,2,0,0,47,33,1468,['c'],1,left,['1'],6,1463,[0.28449352],100,47,medium,plus,dotcolour,alfa,,,124,18,M,R,
3,3,3,0,0,33,47,1400,['c'],0,right,['3'],4,1924,[0.03520338],71,47,medium,plus,dotcolour,alfa,,,124,18,M,R,
4,4,4,0,0,44,36,1284,['c'],1,left,['1'],6,1357,[0.12208172],98,44,hard,plus,dotcolour,alfa,,,124,18,M,R,
5,5,5,0,0,53,27,1000,['c'],1,left,['1'],6,2831,[0.32855063],100,53,easy,plus,dotcolour,alfa,,,124,18,M,R,
6,6,6,0,0,27,53,801,['n'],1,right,['2'],5,1286,[-0.45413116],100,53,easy,plus,dotcolour,alfa,,,124,18,M,R,
7,7,7,0,0,53,27,1133,['c'],1,left,['1'],6,2663,[0.24411747],100,53,easy,plus,dotcolour,alfa,,,124,18,M,R,
8,8,8,0,0,53,27,583,['c'],1,left,['1'],6,1150,[0.27072871],100,53,easy,plus,dotcolour,alfa,,,124,18,M,R,
9,9,9,0,0,44,36,851,['n'],0,left,['3'],4,2326,[0.3464483],0,44,hard,plus,dotcolour,alfa,,,124,18,M,R,
10,10,10,0,0,27,53,1100,['n'],1,right,['2'],5,2357,[-0.2497569],100,53,easy,plus,dotcolour,alfa,,,124,18,M,R,
11,11,11,0,0,47,33,967,['c'],1,left,['2'],5,1121,[0.11730109],98,47,medium,plus,dotcolour,alfa,,,124,18,M,R,
12,12,12,0,0,44,36,1200,['c'],1,left,['3'],4,805,[0.14483907],100,44,hard,plus,dotcolour,alfa,,,124,18,M,R,
13,13,13,0,0,44,36,900,['c'],1,left,['3'],4,2930,[0.21741152],99,44,hard,plus,dotcolour,alfa,,,124,18,M,R,
14,14,14,0,0,33,47,983,['n'],1,right,['9'],2,3070,[-0.14836568],95,47,medium,plus,dotcolour,alfa,,,124,18,M,R,
15,15,15,0,0,36,44,767,['c'],0,right,['8'],3,1620,[-0.08874265],8,44,hard,plus,dotcolour,alfa,,,124,18,M,R,
16,16,16,0,0,33,47,1384,['c'],0,right,['2'],5,877,[0.14581543],100,47,medium,plus,dotcolour,alfa,,,124,18,M,R,
17,17,17,0,0,36,44,866,['c'],0,right,['3'],4,1145,[0.00642678],55,44,hard,plus,dotcolour,alfa,,,124,18,M,R,
18,18,18,0,0,47,33,1250,['c'],1,left,['2'],5,1722,[0.23623301],100,47,medium,plus,dotcolour,alfa,,,124,18,M,R,
19,19,19,0,0,47,33,684,['c'],1,left,['1'],6,659,[0.05812761],93,47,medium,plus,dotcolour,alfa,,,124,18,M,R,
20,20,20,0,0,44,36,1133,['c'],1,left,['2'],5,644,[0.18225203],100,44,hard,plus,dotcolour,alfa,,,124,18,M,R,
21,21,21,0,0,53,27,651,['c'],1,left,['1'],6,2490,[0.2249887],99,53,easy,plus,dotcolour,alfa,,,124,18,M,R,
22,22,22,0,0,44,36,800,['c'],1,left,['3'],4,678,[0.11832918],99,44,hard,plus,dotcolour,alfa,,,124,18,M,R,
23,23,23,0,0,33,47,767,['n'],1,right,['2'],5,1869,[-0.2527706],100,47,medium,plus,dotcolour,alfa,,,124,18,M,R,
24,24,24,0,0,36,44,933,['n'],1,right,['3'],4,1206,[-0.12188507],98,44,hard,plus,dotcolour,alfa,,,124,18,M,R,
25,25,25,0,0,33,47,750,['n'],1,right,['2'],5,929,[-0.11263878],99,47,medium,plus,dotcolour,alfa,,,124,18,M,R,
26,26,26,0,0,47,33,683,['c'],1,left,['3'],4,1674,[0.18811677],99,47,medium,plus,dotcolour,alfa,,,124,18,M,R,
27,27,27,0,0,36,44,800,['n'],1,right,['3'],4,680,[-0.10876432],99,44,hard,plus,dotcolour,alfa,,,124,18,M,R,
28,28,28,0,0,53,27,733,['c'],1,left,['1'],6,2896,[0.49899172],100,53,easy,plus,dotcolour,alfa,,,124,18,M,R,
29,29,29,0,0,36,44,1217,['c'],0,right,['3'],4,1093,[-0.00497798],46,44,hard,plus,dotcolour,alfa,,,124,18,M,R,
30,30,30,0,0,53,27,1017,['c'],1,left,['3'],4,57,[0.07545953],100,53,easy,plus,dotcolour,alfa,,,124,18,M,R,
31,31,31,0,0,36,44,1166,['n'],1,right,['3'],4,3905,[0.05839458],26,44,hard,plus,dotcolour,alfa,,,124,18,M,R,
32,32,32,0,0,27,53,767,['n'],1,right,['1'],6,543,[-0.20062197],100,53,easy,plus,dotcolour,alfa,,,124,18,M,R,
33,33,33,0,0,27,53,716,['n'],1,right,['1'],6,1085,[-0.21774193],100,53,easy,plus,dotcolour,alfa,,,124,18,M,R,
34,34,34,0,0,44,36,700,['n'],0,left,['3'],4,1783,[0.27068242],0,44,hard,plus,dotcolour,alfa,,,124,18,M,R,
35,35,35,0,0,36,44,700,['n'],1,right,['2'],5,1156,[-0.01650475],63,44,hard,plus,dotcolour,alfa,,,124,18,M,R,
36,36,36,0,0,27,53,583,['n'],1,right,['1'],6,447,[-0.205336],100,53,easy,plus,dotcolour,alfa,,,124,18,M,R,
37,37,37,0,0,27,53,600,['n'],1,right,['1'],6,903,[-0.2205962],100,53,easy,plus,dotcolour,alfa,,,124,18,M,R,
38,38,38,0,0,27,53,434,['n'],1,right,['1'],6,547,[-0.10999828],100,53,easy,plus,dotcolour,alfa,,,124,18,M,R,
39,39,39,0,0,33,47,518,['n'],1,right,['1'],6,482,[0.05682934],5,47,medium,plus,dotcolour,alfa,,,124,18,M,R,
40,40,40,0,0,47,33,801,['n'],0,left,['0'],1,2567,[0.19481438],1,47,medium,plus,dotcolour,alfa,,,124,18,M,R,
41,41,41,0,0,53,27,1050,['c'],1,left,['1'],6,3416,[0.36961135],100,53,easy,plus,dotcolour,alfa,,,124,18,M,R,
42,42,0,1,0,44,36,1017,['c'],1,left,['3'],4,1712,[0.26717309],100,44,hard,plus,dotcolour,alfa,,,124,18,M,R,
43,43,1,1,0,33,47,649,['n'],1,right,['2'],5,802,[-0.17327153],100,47,medium,plus,dotcolour,alfa,,,124,18,M,R,
44,44,2,1,0,53,27,566,['c'],1,left,['2'],5,940,[0.35362419],100,53,easy,plus,dotcolour,alfa,,,124,18,M,R,
45,45,3,1,0,36,44,917,['n'],1,right,['1'],6,1251,[-0.25484384],100,44,hard,plus,dotcolour,alfa,,,124,18,M,R,
46,46,4,1,0,47,33,1034,['c'],1,left,['2'],5,1264,[0.22505662],100,47,medium,plus,dotcolour,alfa,,,124,18,M,R,
47,47,5,1,0,53,27,650,['c'],1,left,['1'],6,508,[0.07176364],97,53,easy,plus,dotcolour,alfa,,,124,18,M,R,
48,48,6,1,0,33,47,800,['n'],1,right,['3'],4,993,[-0.28719295],100,47,medium,plus,dotcolour,alfa,,,124,18,M,R,
49,49,7,1,0,47,33,700,['n'],0,left,['9'],2,1230,[0.3865426],0,47,medium,plus,dotcolour,alfa,,,124,18,M,R,
50,50,8,1,0,33,47,867,['n'],1,right,['3'],4,3548,[-0.10212488],88,47,medium,plus,dotcolour,alfa,,,124,18,M,R,
51,51,9,1,0,27,53,817,['n'],1,right,['2'],5,653,[-0.09124961],98,53,easy,plus,dotcolour,alfa,,,124,18,M,R,
52,52,10,1,0,47,33,784,['c'],1,left,['3'],4,2580,[0.43637111],100,47,medium,plus,dotcolour,alfa,,,124,18,M,R,
53,53,11,1,0,53,27,767,['c'],1,left,['1'],6,959,[0.22987904],100,53,easy,plus,dotcolour,alfa,,,124,18,M,R,
54,54,12,1,0,33,47,867,['n'],1,right,['2'],5,3367,[-0.16398328],96,47,medium,plus,dotcolour,alfa,,,124,18,M,R,
55,55,13,1,0,44,36,784,['c'],1,left,['2'],5,1521,[0.17667142],99,44,hard,plus,dotcolour,alfa,,,124,18,M,R,
56,56,14,1,0,44,36,500,['c'],1,left,['1'],6,3633,[0.33158201],100,44,hard,plus,dotcolour,alfa,,,124,18,M,R,
57,57,15,1,0,36,44,633,['n'],1,right,['2'],5,966,[-0.07031855],93,44,hard,plus,dotcolour,alfa,,,124,18,M,R,
58,58,16,1,0,44,36,1100,['c'],1,left,['3'],4,7093,[0.39743076],100,44,hard,plus,dotcolour,alfa,,,124,18,M,R,
59,59,17,1,0,47,33,733,['c'],1,left,['2'],5,3035,[0.42987056],100,47,medium,plus,dotcolour,alfa,,,124,18,M,R,
60,60,18,1,0,44,36,1234,['c'],1,left,['2'],5,1353,[0.13291976],98,44,hard,plus,dotcolour,alfa,,,124,18,M,R,
61,61,19,1,0,44,36,1051,['c'],1,left,['3'],4,786,[0.0191304],68,44,hard,plus,dotcolour,alfa,,,124,18,M,R,
62,62,20,1,0,47,33,934,['c'],1,left,['1'],6,1046,[0.17262056],100,47,medium,plus,dotcolour,alfa,,,124,18,M,R,
63,63,21,1,0,53,27,1051,['c'],1,left,['1'],6,538,[0.2704846],100,53,easy,plus,dotcolour,alfa,,,124,18,M,R,
64,64,22,1,0,36,44,967,['n'],1,right,['2'],5,1215,[-0.16784635],100,44,hard,plus,dotcolour,alfa,,,124,18,M,R,
65,65,23,1,0,27,53,618,['n'],1,right,['2'],5,806,[-0.102291],98,53,easy,plus,dotcolour,alfa,,,124,18,M,R,
66,66,24,1,0,44,36,801,['c'],1,left,['3'],4,3335,[0.38469255],100,44,hard,plus,dotcolour,alfa,,,124,18,M,R,
67,67,25,1,0,33,47,651,['n'],1,right,['2'],5,2184,[-0.29722935],100,47,medium,plus,dotcolour,alfa,,,124,18,M,R,
68,68,26,1,0,27,53,484,['n'],1,right,['1'],6,718,[-0.1006592],99,53,easy,plus,dotcolour,alfa,,,124,18,M,R,
69,69,27,1,0,33,47,800,['c'],0,right,['1'],6,1146,[-0.02315128],31,47,medium,plus,dotcolour,alfa,,,124,18,M,R,
70,70,28,1,0,27,53,634,['n'],1,right,['1'],6,828,[-0.17345843],100,53,easy,plus,dotcolour,alfa,,,124,18,M,R,
71,71,29,1,0,27,53,734,['n'],1,right,['1'],6,511,[-0.10380055],99,53,easy,plus,dotcolour,alfa,,,124,18,M,R,
72,72,30,1,0,53,27,951,['c'],1,left,['1'],6,3117,[0.62496108],100,53,easy,plus,dotcolour,alfa,,,124,18,M,R,
73,73,31,1,0,33,47,916,['n'],1,right,['1'],6,1117,[-0.19894453],100,47,medium,plus,dotcolour,alfa,,,124,18,M,R,
74,74,32,1,0,36,44,718,['n'],1,right,['1'],6,540,[-0.12778735],100,44,hard,plus,dotcolour,alfa,,,124,18,M,R,
75,75,33,1,0,53,27,1033,['c'],1,left,['1'],6,1230,[0.34273969],100,53,easy,plus,dotcolour,alfa,,,124,18,M,R,
76,76,34,1,0,36,44,1067,['n'],1,right,['2'],5,716,[-0.09212637],98,44,hard,plus,dotcolour,alfa,,,124,18,M,R,
77,77,35,1,0,47,33,717,['c'],1,left,['2'],5,884,[0.24773898],100,47,medium,plus,dotcolour,alfa,,,124,18,M,R,
78,78,36,1,0,47,33,650,['c'],1,left,['2'],5,1543,[0.15646484],99,47,medium,plus,dotcolour,alfa,,,124,18,M,R,
79,79,37,1,0,27,53,751,['n'],1,right,['1'],6,2420,[-0.28403583],100,53,easy,plus,dotcolour,alfa,,,124,18,M,R,
80,80,38,1,0,36,44,1200,['c'],0,right,['3'],4,1282,[0.00036862],50,44,hard,plus,dotcolour,alfa,,,124,18,M,R,
81,81,39,1,0,53,27,850,['c'],1,left,['2'],5,686,[0.15452871],100,53,easy,plus,dotcolour,alfa,,,124,18,M,R,
82,82,40,1,0,36,44,600,['n'],1,right,['8'],3,3171,[-0.28910267],100,44,hard,plus,dotcolour,alfa,,,124,18,M,R,
83,83,41,1,0,27,53,733,['n'],1,right,['2'],5,584,[-0.15575896],100,53,easy,plus,dotcolour,alfa,,,124,18,M,R,
84,84,0,2,0,47,33,783,['c'],1,left,['2'],5,1367,[0.03355276],74,47,medium,plus,dotcolour,alfa,,,124,18,M,R,
85,85,1,2,0,53,27,584,['c'],1,left,['1'],6,1194,[0.13861238],99,53,easy,plus,dotcolour,alfa,,,124,18,M,R,
86,86,2,2,0,44,36,1183,['c'],1,left,['3'],4,1147,[0.14037103],99,44,hard,plus,dotcolour,alfa,,,124,18,M,R,
87,87,3,2,0,36,44,684,['n'],1,right,['2'],5,3075,[-0.41957757],100,44,hard,plus,dotcolour,alfa,,,124,18,M,R,
88,88,4,2,0,47,33,567,['n'],0,left,['0'],1,1202,[-0.03799868],78,47,medium,plus,dotcolour,alfa,,,124,18,M,R,
89,89,5,2,0,33,47,967,['n'],1,right,['2'],5,1356,[-0.05680839],85,47,medium,plus,dotcolour,alfa,,,124,18,M,R,
90,90,6,2,0,36,44,1050,['c'],0,right,['8'],3,1885,[-0.04296943],24,44,hard,plus,dotcolour,alfa,,,124,18,M,R,
91,91,7,2,0,27,53,717,['n'],1,right,['2'],5,566,[-0.20420392],100,53,easy,plus,dotcolour,alfa,,,124,18,M,R,
92,92,8,2,0,44,36,817,['c'],1,left,['3'],4,5168,[0.86673699],100,44,hard,plus,dotcolour,alfa,,,124,18,M,R,
93,93,9,2,0,36,44,667,['n'],1,right,['2'],5,2806,[-0.32280675],100,44,hard,plus,dotcolour,alfa,,,124,18,M,R,
94,94,10,2,0,27,53,617,['n'],1,right,['1'],6,446,[-0.189573],100,53,easy,plus,dotcolour,alfa,,,124,18,M,R,
95,95,11,2,0,53,27,766,['c'],1,left,['1'],6,311,[0.1250136],100,53,easy,plus,dotcolour,alfa,,,124,18,M,R,
96,96,12,2,0,33,47,767,['n'],1,right,['1'],6,5029,[-0.5870393],100,47,medium,plus,dotcolour,alfa,,,124,18,M,R,
97,97,13,2,0,36,44,550,['n'],1,right,['2'],5,861,[-0.40886257],100,44,hard,plus,dotcolour,alfa,,,124,18,M,R,
98,98,14,2,0,44,36,816,['c'],1,left,['2'],5,684,[-0.05156937],10,44,hard,plus,dotcolour,alfa,,,124,18,M,R,
99,99,15,2,0,47,33,1517,['c'],1,left,['8'],3,1037,[0.29557105],100,47,medium,plus,dotcolour,alfa,,,124,18,M,R,
100,100,16,2,0,53,27,1116,['c'],1,left,['1'],6,576,[0.10207048],99,53,easy,plus,dotcolour,alfa,,,124,18,M,R,
101,101,17,2,0,33,47,650,['n'],1,right,['1'],6,3024,[-0.37579544],100,47,medium,plus,dotcolour,alfa,,,124,18,M,R,
102,102,18,2,0,47,33,783,['c'],1,left,['2'],5,632,[0.05578018],93,47,medium,plus,dotcolour,alfa,,,124,18,M,R,
103,103,19,2,0,53,27,1268,['c'],1,left,['2'],5,517,[0.16207275],100,53,easy,plus,dotcolour,alfa,,,124,18,M,R,
104,104,20,2,0,44,36,1034,['c'],1,left,['3'],4,1144,[0.11771239],98,44,hard,plus,dotcolour,alfa,,,124,18,M,R,
105,105,21,2,0,27,53,600,['n'],1,right,['2'],5,772,[-0.25855907],100,53,easy,plus,dotcolour,alfa,,,124,18,M,R,
106,106,22,2,0,36,44,918,['c'],0,right,['3'],4,1441,[0.12678421],98,44,hard,plus,dotcolour,alfa,,,124,18,M,R,
107,107,23,2,0,27,53,533,['n'],1,right,['1'],6,1235,[-0.05444043],85,53,easy,plus,dotcolour,alfa,,,124,18,M,R,
108,108,24,2,0,33,47,1084,['n'],1,right,['2'],5,4343,[-0.75404004],100,47,medium,plus,dotcolour,alfa,,,124,18,M,R,
109,109,25,2,0,44,36,817,['n'],0,left,['8'],3,1024,[-0.02265656],69,44,hard,plus,dotcolour,alfa,,,124,18,M,R,
110,110,26,2,0,33,47,984,['c'],0,right,['2'],5,834,[0.18846333],100,47,medium,plus,dotcolour,alfa,,,124,18,M,R,
111,111,27,2,0,33,47,767,['n'],1,right,['3'],4,1691,[-0.25133553],100,47,medium,plus,dotcolour,alfa,,,124,18,M,R,
112,112,28,2,0,44,36,667,['c'],1,left,['3'],4,5077,[0.43664155],100,44,hard,plus,dotcolour,alfa,,,124,18,M,R,
113,113,29,2,0,33,47,633,['n'],1,right,['2'],5,585,[-0.15413784],100,47,medium,plus,dotcolour,alfa,,,124,18,M,R,
114,114,30,2,0,47,33,767,['c'],1,left,['2'],5,828,[-0.06517694],7,47,medium,plus,dotcolour,alfa,,,124,18,M,R,
115,115,31,2,0,27,53,701,['n'],1,right,['2'],5,1488,[-0.14732927],99,53,easy,plus,dotcolour,alfa,,,124,18,M,R,
116,116,32,2,0,44,36,817,['n'],0,left,['2'],5,1149,[-0.25374856],100,44,hard,plus,dotcolour,alfa,,,124,18,M,R,
117,117,33,2,0,36,44,832,['n'],1,right,['1'],6,1238,[-0.18634424],100,44,hard,plus,dotcolour,alfa,,,124,18,M,R,
118,118,34,2,0,27,53,499,['n'],1,right,['1'],6,434,[-0.11583663],100,53,easy,plus,dotcolour,alfa,,,124,18,M,R,
119,119,35,2,0,53,27,635,['c'],1,left,['1'],6,648,[0.13805877],100,53,easy,plus,dotcolour,alfa,,,124,18,M,R,
120,120,36,2,0,36,44,615,['n'],1,right,['2'],5,751,[-0.10142698],99,44,hard,plus,dotcolour,alfa,,,124,18,M,R,
121,121,37,2,0,47,33,618,['c'],1,left,['2'],5,4906,[0.18120901],95,47,medium,plus,dotcolour,alfa,,,124,18,M,R,
122,122,38,2,0,47,33,817,['c'],1,left,['1'],6,949,[0.14825048],100,47,medium,plus,dotcolour,alfa,,,124,18,M,R,
123,123,39,2,0,53,27,466,['c'],1,left,['1'],6,549,[0.11635035],100,53,easy,plus,dotcolour,alfa,,,124,18,M,R,
124,124,40,2,0,53,27,517,['c'],1,left,['1'],6,1308,[0.42164875],100,53,easy,plus,dotcolour,alfa,,,124,18,M,R,
125,125,41,2,0,27,53,567,['n'],1,right,['2'],5,474,[-0.06967628],97,53,easy,plus,dotcolour,alfa,,,124,18,M,R,
126,0,0,3,1,47,33,984,['c'],1,left,['2'],5,1097,[0.09177084],69,47,medium,minus,dotcolour,alfa,,,124,18,M,R,
127,1,1,3,1,27,53,601,['n'],1,right,['1'],6,582,[-0.20698219],92,53,easy,minus,dotcolour,alfa,,,124,18,M,R,
128,2,2,3,1,36,44,500,['n'],1,right,['1'],6,660,[-0.10449694],76,44,hard,minus,dotcolour,alfa,,,124,18,M,R,
129,3,3,3,1,36,44,1301,['c'],0,right,['3'],4,671,[0.20622177],91,44,hard,minus,dotcolour,alfa,,,124,18,M,R,
130,4,4,3,1,44,36,601,['n'],0,left,['2'],5,1445,[0.00625271],49,44,hard,minus,dotcolour,alfa,,,124,18,M,R,
131,5,5,3,1,33,47,600,['n'],1,right,['2'],5,988,[-0.26684959],92,47,medium,minus,dotcolour,alfa,,,124,18,M,R,
132,6,6,3,1,27,53,500,['n'],1,right,['2'],5,386,[-0.06292333],71,53,easy,minus,dotcolour,alfa,,,124,18,M,R,
133,7,7,3,1,44,36,1133,['c'],1,left,['3'],4,583,[0.07908434],72,44,hard,minus,dotcolour,alfa,,,124,18,M,R,
134,8,8,3,1,27,53,567,['n'],1,right,['2'],5,2970,[-0.05701218],57,53,easy,minus,dotcolour,alfa,,,124,18,M,R,
135,9,9,3,1,36,44,600,['n'],1,right,['8'],3,1675,[-0.16392949],76,44,hard,minus,dotcolour,alfa,,,124,18,M,R,
136,10,10,3,1,36,44,1167,['n'],1,right,['3'],4,1267,[-0.16603937],79,44,hard,minus,dotcolour,alfa,,,124,18,M,R,
137,11,11,3,1,47,33,733,['n'],0,left,['9'],2,1547,[0.06434695],39,47,medium,minus,dotcolour,alfa,,,124,18,M,R,
138,12,12,3,1,33,47,1600,['n'],1,right,['3'],4,727,[-0.14758092],83,47,medium,minus,dotcolour,alfa,,,124,18,M,R,
139,13,13,3,1,47,33,934,['c'],1,left,['2'],5,1309,[0.33689986],93,47,medium,minus,dotcolour,alfa,,,124,18,M,R,
140,14,14,3,1,27,53,717,['n'],1,right,['2'],5,717,[-0.09628317],74,53,easy,minus,dotcolour,alfa,,,124,18,M,R,
141,15,15,3,1,44,36,1734,['c'],1,left,['2'],5,4796,[0.38653298],83,44,hard,minus,dotcolour,alfa,,,124,18,M,R,
142,16,16,3,1,47,33,633,['c'],1,left,['2'],5,2699,[0.39943118],90,47,medium,minus,dotcolour,alfa,,,124,18,M,R,
143,17,17,3,1,27,53,583,['n'],1,right,['1'],6,480,[-0.11559841],82,53,easy,minus,dotcolour,alfa,,,124,18,M,R,
144,18,18,3,1,47,33,867,['c'],1,left,['2'],5,404,[0.26636305],98,47,medium,minus,dotcolour,alfa,,,124,18,M,R,
145,19,19,3,1,33,47,683,['n'],1,right,['3'],4,1569,[-0.25045994],86,47,medium,minus,dotcolour,alfa,,,124,18,M,R,
146,20,20,3,1,33,47,800,['n'],1,right,['2'],5,388,[-0.1451502],89,47,medium,minus,dotcolour,alfa,,,124,18,M,R,
147,21,21,3,1,36,44,1068,['n'],1,right,['2'],5,9770,[-0.23822803],67,44,hard,minus,dotcolour,alfa,,,124,18,M,R,
148,22,22,3,1,53,27,883,['c'],1,left,['1'],6,1342,[0.19948166],82,53,easy,minus,dotcolour,alfa,,,124,18,M,R,
149,23,23,3,1,44,36,633,['c'],1,left,['2'],5,488,[0.0075536],52,44,hard,minus,dotcolour,alfa,,,124,18,M,R,
150,24,24,3,1,33,47,567,['n'],1,right,['3'],4,4351,[-0.30348545],79,47,medium,minus,dotcolour,alfa,,,124,18,M,R,
151,25,25,3,1,27,53,650,['n'],1,right,['3'],4,1143,[-0.15537087],79,53,easy,minus,dotcolour,alfa,,,124,18,M,R,
152,26,26,3,1,53,27,883,['c'],1,left,['1'],6,767,[0.17031139],85,53,easy,minus,dotcolour,alfa,,,124,18,M,R,
153,27,27,3,1,44,36,917,['c'],1,left,['2'],5,565,[0.0951671],76,44,hard,minus,dotcolour,alfa,,,124,18,M,R,
154,28,28,3,1,47,33,817,['c'],1,left,['1'],6,1911,[0.19751209],78,47,medium,minus,dotcolour,alfa,,,124,18,M,R,
155,29,29,3,1,47,33,834,['c'],1,left,['1'],6,1034,[0.18192753],83,47,medium,minus,dotcolour,alfa,,,124,18,M,R,
156,30,30,3,1,33,47,734,['n'],1,right,['1'],6,708,[-0.24111359],93,47,medium,minus,dotcolour,alfa,,,124,18,M,R,
157,31,31,3,1,36,44,483,['n'],1,right,['3'],4,2493,[0.13907161],31,44,hard,minus,dotcolour,alfa,,,124,18,M,R,
158,32,32,3,1,53,27,650,['c'],1,left,['2'],5,432,[0.08023756],75,53,easy,minus,dotcolour,alfa,,,124,18,M,R,
159,33,33,3,1,27,53,667,['n'],1,right,['1'],6,621,[-0.2051371],91,53,easy,minus,dotcolour,alfa,,,124,18,M,R,
160,34,34,3,1,53,27,783,['c'],1,left,['1'],6,4486,[0.53154508],91,53,easy,minus,dotcolour,alfa,,,124,18,M,R,
161,35,35,3,1,53,27,534,['c'],1,left,['1'],6,1997,[0.11603674],68,53,easy,minus,dotcolour,alfa,,,124,18,M,R,
162,36,36,3,1,44,36,799,['n'],0,left,['9'],2,3191,[0.39116055],12,44,hard,minus,dotcolour,alfa,,,124,18,M,R,
163,37,37,3,1,53,27,1267,['c'],1,left,['2'],5,1156,[0.17043142],81,53,easy,minus,dotcolour,alfa,,,124,18,M,R,
164,38,38,3,1,53,27,668,['c'],1,left,['1'],6,1084,[0.19208114],84,53,easy,minus,dotcolour,alfa,,,124,18,M,R,
165,39,39,3,1,36,44,784,['n'],1,right,['3'],4,650,[-0.16596131],86,44,hard,minus,dotcolour,alfa,,,124,18,M,R,
166,40,40,3,1,44,36,600,['c'],1,left,['3'],4,4433,[0.46991213],88,44,hard,minus,dotcolour,alfa,,,124,18,M,R,
167,41,41,3,1,33,47,617,['n'],1,right,['2'],5,1416,[-0.43138604],96,47,medium,minus,dotcolour,alfa,,,124,18,M,R,
168,42,0,4,1,27,53,734,['n'],1,right,['2'],5,779,[-0.11268439],76,53,easy,minus,dotcolour,alfa,,,124,18,M,R,
169,43,1,4,1,36,44,533,['c'],0,right,['3'],4,607,[0.1130911],79,44,hard,minus,dotcolour,alfa,,,124,18,M,R,
170,44,2,4,1,36,44,667,['n'],1,right,['8'],3,685,[-0.09334499],73,44,hard,minus,dotcolour,alfa,,,124,18,M,R,
171,45,3,4,1,53,27,583,['c'],1,left,['1'],6,499,[0.14053901],86,53,easy,minus,dotcolour,alfa,,,124,18,M,R,
172,46,4,4,1,27,53,700,['n'],1,right,['1'],6,886,[-0.32210046],96,53,easy,minus,dotcolour,alfa,,,124,18,M,R,
173,47,5,4,1,53,27,682,['c'],1,left,['1'],6,527,[0.09082138],76,53,easy,minus,dotcolour,alfa,,,124,18,M,R,
174,48,6,4,1,27,53,683,['n'],1,right,['1'],6,1240,[-0.18335302],81,53,easy,minus,dotcolour,alfa,,,124,18,M,R,
175,49,7,4,1,47,33,584,['c'],1,left,['1'],6,647,[0.29268064],96,47,medium,minus,dotcolour,alfa,,,124,18,M,R,
176,50,8,4,1,27,53,584,['n'],1,right,['2'],5,2536,[-0.28779805],84,53,easy,minus,dotcolour,alfa,,,124,18,M,R,
177,51,9,4,1,33,47,634,['n'],1,right,['2'],5,801,[-0.2344705],91,47,medium,minus,dotcolour,alfa,,,124,18,M,R,
178,52,10,4,1,27,53,467,['n'],1,right,['2'],5,488,[-0.1440566],86,53,easy,minus,dotcolour,alfa,,,124,18,M,R,
179,53,11,4,1,33,47,817,['c'],0,right,['2'],5,676,[-0.15434604],16,47,medium,minus,dotcolour,alfa,,,124,18,M,R,
180,54,12,4,1,27,53,551,['n'],1,right,['2'],5,1396,[-0.16405117],78,53,easy,minus,dotcolour,alfa,,,124,18,M,R,
181,55,13,4,1,53,27,566,['c'],1,left,['2'],5,1511,[0.20478406],82,53,easy,minus,dotcolour,alfa,,,124,18,M,R,
182,56,14,4,1,53,27,733,['c'],1,left,['1'],6,334,[0.18249125],94,53,easy,minus,dotcolour,alfa,,,124,18,M,R,
183,57,15,4,1,53,27,700,['c'],1,left,['1'],6,278,[0.11763175],88,53,easy,minus,dotcolour,alfa,,,124,18,M,R,
184,58,16,4,1,47,33,634,['n'],0,left,['3'],4,1330,[-0.02285588],54,47,medium,minus,dotcolour,alfa,,,124,18,M,R,
185,59,17,4,1,47,33,700,['c'],1,left,['2'],5,410,[0.03504231],62,47,medium,minus,dotcolour,alfa,,,124,18,M,R,
186,60,18,4,1,47,33,899,['c'],1,left,['3'],4,1622,[0.15684992],75,47,medium,minus,dotcolour,alfa,,,124,18,M,R,
187,61,19,4,1,33,47,551,['n'],1,right,['2'],5,536,[-0.16490214],88,47,medium,minus,dotcolour,alfa,,,124,18,M,R,
188,62,20,4,1,44,36,717,['c'],1,left,['3'],4,1999,[0.21788051],80,44,hard,minus,dotcolour,alfa,,,124,18,M,R,
189,63,21,4,1,44,36,583,['c'],1,left,['2'],5,1729,[0.11265606],68,44,hard,minus,dotcolour,alfa,,,124,18,M,R,
190,64,22,4,1,33,47,584,['n'],1,right,['3'],4,2365,[-0.47601817],94,47,medium,minus,dotcolour,alfa,,,124,18,M,R,
191,65,23,4,1,53,27,583,['c'],1,left,['2'],5,1383,[0.06792725],63,53,easy,minus,dotcolour,alfa,,,124,18,M,R,
192,66,24,4,1,33,47,650,['n'],1,right,['3'],4,839,[-0.07113115],67,47,medium,minus,dotcolour,alfa,,,124,18,M,R,
193,67,25,4,1,27,53,600,['n'],1,right,['2'],5,702,[-0.26520671],95,53,easy,minus,dotcolour,alfa,,,124,18,M,R,
194,68,26,4,1,36,44,734,['n'],1,right,['3'],4,1382,[-0.01403513],53,44,hard,minus,dotcolour,alfa,,,124,18,M,R,
195,69,27,4,1,47,33,833,['c'],1,left,['2'],5,814,[0.1471805],81,47,medium,minus,dotcolour,alfa,,,124,18,M,R,
196,70,28,4,1,44,36,1167,['c'],1,left,['2'],5,616,[0.24279027],94,44,hard,minus,dotcolour,alfa,,,124,18,M,R,
197,71,29,4,1,44,36,716,['n'],0,left,['3'],4,900,[0.09523051],29,44,hard,minus,dotcolour,alfa,,,124,18,M,R,
198,72,30,4,1,36,44,868,['n'],1,right,['3'],4,534,[-0.09809657],77,44,hard,minus,dotcolour,alfa,,,124,18,M,R,
199,73,31,4,1,36,44,616,['n'],1,right,['2'],5,586,[-0.07877307],72,44,hard,minus,dotcolour,alfa,,,124,18,M,R,
200,74,32,4,1,36,44,650,['n'],1,right,['2'],5,441,[0.02740861],41,44,hard,minus,dotcolour,alfa,,,124,18,M,R,
201,75,33,4,1,44,36,600,['c'],1,left,['3'],4,2856,[0.38614432],89,44,hard,minus,dotcolour,alfa,,,124,18,M,R,
202,76,34,4,1,47,33,600,['c'],1,left,['2'],5,382,[0.08988713],79,47,medium,minus,dotcolour,alfa,,,124,18,M,R,
203,77,35,4,1,33,47,516,['n'],1,right,['1'],6,652,[0.02210589],44,47,medium,minus,dotcolour,alfa,,,124,18,M,R,
204,78,36,4,1,44,36,567,['c'],1,left,['2'],5,4620,[0.22827382],72,44,hard,minus,dotcolour,alfa,,,124,18,M,R,
205,79,37,4,1,33,47,566,['n'],1,right,['3'],4,869,[-0.1482039],81,47,medium,minus,dotcolour,alfa,,,124,18,M,R,
206,80,38,4,1,47,33,583,['c'],1,left,['2'],5,411,[0.13741234],87,47,medium,minus,dotcolour,alfa,,,124,18,M,R,
207,81,39,4,1,53,27,584,['c'],1,left,['1'],6,380,[0.10028761],81,53,easy,minus,dotcolour,alfa,,,124,18,M,R,
208,82,40,4,1,36,44,600,['n'],1,right,['2'],5,591,[-0.14924869],85,44,hard,minus,dotcolour,alfa,,,124,18,M,R,
209,83,41,4,1,44,36,633,['c'],1,left,['2'],5,855,[0.12954794],78,44,hard,minus,dotcolour,alfa,,,124,18,M,R,
210,84,0,5,1,36,44,701,['n'],1,right,['2'],5,1846,[-0.10650171],67,44,hard,minus,dotcolour,alfa,,,124,18,M,R,
211,85,1,5,1,53,27,567,['c'],1,left,['3'],4,319,[0.20697625],96,53,easy,minus,dotcolour,alfa,,,124,18,M,R,
212,86,2,5,1,36,44,717,['n'],1,right,['2'],5,1303,[-0.09870356],69,44,hard,minus,dotcolour,alfa,,,124,18,M,R,
213,87,3,5,1,53,27,534,['c'],1,left,['2'],5,1966,[0.41204441],93,53,easy,minus,dotcolour,alfa,,,124,18,M,R,
214,88,4,5,1,36,44,616,['n'],1,right,['2'],5,767,[-0.07894479],69,44,hard,minus,dotcolour,alfa,,,124,18,M,R,
215,89,5,5,1,47,33,783,['c'],1,left,['3'],4,2275,[0.29507327],85,47,medium,minus,dotcolour,alfa,,,124,18,M,R,
216,90,6,5,1,27,53,433,['n'],1,right,['2'],5,1431,[-0.41277692],96,53,easy,minus,dotcolour,alfa,,,124,18,M,R,
217,91,7,5,1,44,36,700,['c'],1,left,['3'],4,562,[0.01595401],55,44,hard,minus,dotcolour,alfa,,,124,18,M,R,
218,92,8,5,1,27,53,567,['n'],1,right,['2'],5,366,[-0.0531126],69,53,easy,minus,dotcolour,alfa,,,124,18,M,R,
219,93,9,5,1,33,47,716,['n'],1,right,['3'],4,1133,[-0.27687593],91,47,medium,minus,dotcolour,alfa,,,124,18,M,R,
220,94,10,5,1,33,47,533,['n'],1,right,['2'],5,498,[-0.16368756],89,47,medium,minus,dotcolour,alfa,,,124,18,M,R,
221,95,11,5,1,53,27,567,['c'],1,left,['3'],4,945,[0.29387957],94,53,easy,minus,dotcolour,alfa,,,124,18,M,R,
222,96,12,5,1,36,44,800,['n'],1,right,['2'],5,508,[-0.17282462],90,44,hard,minus,dotcolour,alfa,,,124,18,M,R,
223,97,13,5,1,44,36,717,['c'],1,left,['1'],6,500,[0.17822048],91,44,hard,minus,dotcolour,alfa,,,124,18,M,R,
224,98,14,5,1,33,47,582,['n'],1,right,['2'],5,474,[-0.06110874],69,47,medium,minus,dotcolour,alfa,,,124,18,M,R,
225,99,15,5,1,33,47,600,['n'],1,right,['2'],5,320,[-0.02886579],61,47,medium,minus,dotcolour,alfa,,,124,18,M,R,
226,100,16,5,1,33,47,883,['c'],0,right,['3'],4,1242,[-0.04558361],41,47,medium,minus,dotcolour,alfa,,,124,18,M,R,
227,101,17,5,1,44,36,785,['c'],1,left,['3'],4,946,[0.18081643],84,44,hard,minus,dotcolour,alfa,,,124,18,M,R,
228,102,18,5,1,27,53,717,['n'],1,right,['3'],4,888,[-0.03723246],59,53,easy,minus,dotcolour,alfa,,,124,18,M,R,
229,103,19,5,1,47,33,634,['c'],1,left,['2'],5,580,[0.09464116],75,47,medium,minus,dotcolour,alfa,,,124,18,M,R,
230,104,20,5,1,27,53,450,['n'],1,right,['2'],5,548,[-0.20973511],93,53,easy,minus,dotcolour,alfa,,,124,18,M,R,
231,105,21,5,1,36,44,899,['n'],1,right,['3'],4,828,[0.02974063],43,44,hard,minus,dotcolour,alfa,,,124,18,M,R,
232,106,22,5,1,47,33,516,['c'],1,left,['2'],5,1423,[0.01825688],53,47,medium,minus,dotcolour,alfa,,,124,18,M,R,
233,107,23,5,1,27,53,634,['n'],1,right,['2'],5,1014,[-0.32213972],95,53,easy,minus,dotcolour,alfa,,,124,18,M,R,
234,108,24,5,1,47,33,1117,['c'],1,left,['1'],6,474,[0.14912246],88,47,medium,minus,dotcolour,alfa,,,124,18,M,R,
235,109,25,5,1,44,36,768,['n'],0,left,['2'],5,505,[0.00017596],50,44,hard,minus,dotcolour,alfa,,,124,18,M,R,
236,110,26,5,1,47,33,883,['c'],1,left,['2'],5,394,[0.07457944],74,47,medium,minus,dotcolour,alfa,,,124,18,M,R,
237,111,27,5,1,47,33,766,['c'],1,left,['1'],6,2789,[0.54476516],95,47,medium,minus,dotcolour,alfa,,,124,18,M,R,
238,112,28,5,1,44,36,667,['c'],1,left,['8'],3,1115,[0.13299756],76,44,hard,minus,dotcolour,alfa,,,124,18,M,R,
239,113,29,5,1,36,44,817,['n'],1,right,['8'],3,1879,[-0.29522906],87,44,hard,minus,dotcolour,alfa,,,124,18,M,R,
240,114,30,5,1,33,47,600,['n'],1,right,['9'],2,964,[-0.14712837],79,47,medium,minus,dotcolour,alfa,,,124,18,M,R,
241,115,31,5,1,53,27,450,['c'],1,left,['2'],5,717,[0.13967697],82,53,easy,minus,dotcolour,alfa,,,124,18,M,R,
242,116,32,5,1,33,47,1250,['c'],0,right,['3'],4,799,[0.03429821],59,47,medium,minus,dotcolour,alfa,,,124,18,M,R,
243,117,33,5,1,53,27,584,['c'],1,left,['1'],6,769,[0.23987463],92,53,easy,minus,dotcolour,alfa,,,124,18,M,R,
244,118,34,5,1,53,27,900,['c'],1,left,['2'],5,768,[0.18048582],86,53,easy,minus,dotcolour,alfa,,,124,18,M,R,
245,119,35,5,1,27,53,783,['n'],1,right,['1'],6,331,[-0.02688921],60,53,easy,minus,dotcolour,alfa,,,124,18,M,R,
246,120,36,5,1,27,53,617,['n'],1,right,['1'],6,1455,[-0.0851532],65,53,easy,minus,dotcolour,alfa,,,124,18,M,R,
247,121,37,5,1,53,27,750,['c'],1,left,['1'],6,407,[0.04670158],66,53,easy,minus,dotcolour,alfa,,,124,18,M,R,
248,122,38,5,1,44,36,717,['c'],1,left,['1'],6,419,[0.16067622],90,44,hard,minus,dotcolour,alfa,,,124,18,M,R,
249,123,39,5,1,44,36,600,['c'],1,left,['1'],6,1364,[0.11954507],72,44,hard,minus,dotcolour,alfa,,,124,18,M,R,
250,124,40,5,1,36,44,584,['n'],1,right,['2'],5,550,[-0.1490114],86,44,hard,minus,dotcolour,alfa,,,124,18,M,R,
251,125,41,5,1,47,33,500,['n'],0,left,['0'],1,1750,[0.12228354],30,47,medium,minus,dotcolour,alfa,,,124,18,M,R,
252,0,0,6,2,36,44,967,['n'],1,right,['2'],5,2255,[-0.01186566],57,44,hard,plus,dotcolour,alfa,,,124,18,M,R,
253,1,1,6,2,36,44,751,['n'],1,right,['3'],4,1631,[-0.14913523],99,44,hard,plus,dotcolour,alfa,,,124,18,M,R,
254,2,2,6,2,36,44,433,['n'],1,right,['8'],3,901,[-0.10256499],98,44,hard,plus,dotcolour,alfa,,,124,18,M,R,
255,3,3,6,2,53,27,617,['c'],1,left,['2'],5,513,[0.16995172],100,53,easy,plus,dotcolour,alfa,,,124,18,M,R,
256,4,4,6,2,53,27,584,['c'],1,left,['2'],5,455,[0.13709159],100,53,easy,plus,dotcolour,alfa,,,124,18,M,R,
257,5,5,6,2,53,27,566,['c'],1,left,['2'],5,486,[0.17077159],100,53,easy,plus,dotcolour,alfa,,,124,18,M,R,
258,6,6,6,2,33,47,617,['n'],1,right,['2'],5,1387,[-0.09308921],95,47,medium,plus,dotcolour,alfa,,,124,18,M,R,
259,7,7,6,2,27,53,566,['n'],1,right,['1'],6,406,[-0.19813795],100,53,easy,plus,dotcolour,alfa,,,124,18,M,R,
260,8,8,6,2,33,47,899,['n'],1,right,['2'],5,338,[-0.10419541],100,47,medium,plus,dotcolour,alfa,,,124,18,M,R,
261,9,9,6,2,33,47,600,['n'],1,right,['2'],5,750,[-0.17584842],100,47,medium,plus,dotcolour,alfa,,,124,18,M,R,
262,10,10,6,2,27,53,550,['n'],1,right,['1'],6,403,[-0.09085504],99,53,easy,plus,dotcolour,alfa,,,124,18,M,R,
263,11,11,6,2,27,53,617,['n'],1,right,['2'],5,468,[-0.13276531],100,53,easy,plus,dotcolour,alfa,,,124,18,M,R,
264,12,12,6,2,27,53,467,['n'],1,right,['2'],5,360,[-0.12040252],100,53,easy,plus,dotcolour,alfa,,,124,18,M,R,
265,13,13,6,2,47,33,534,['c'],1,left,['1'],6,349,[0.01940256],77,47,medium,plus,dotcolour,alfa,,,124,18,M,R,
266,14,14,6,2,47,33,817,['n'],0,left,['2'],5,336,[0.03363052],11,47,medium,plus,dotcolour,alfa,,,124,18,M,R,
267,15,15,6,2,53,27,634,['c'],1,left,['1'],6,771,[0.17869189],100,53,easy,plus,dotcolour,alfa,,,124,18,M,R,
268,16,16,6,2,53,27,499,['c'],1,left,['1'],6,305,[0.01295607],70,53,easy,plus,dotcolour,alfa,,,124,18,M,R,
269,17,17,6,2,44,36,500,['c'],1,left,['1'],6,546,[0.03116684],82,44,hard,plus,dotcolour,alfa,,,124,18,M,R,
270,18,18,6,2,44,36,483,['c'],1,left,['3'],4,962,[0.04178765],82,44,hard,plus,dotcolour,alfa,,,124,18,M,R,
271,19,19,6,2,27,53,567,['n'],1,right,['2'],5,478,[-0.24539324],100,53,easy,plus,dotcolour,alfa,,,124,18,M,R,
272,20,20,6,2,47,33,667,['c'],1,left,['2'],5,585,[0.20986524],100,47,medium,plus,dotcolour,alfa,,,124,18,M,R,
273,21,21,6,2,44,36,750,['n'],0,left,['8'],3,965,[-0.11855846],99,44,hard,plus,dotcolour,alfa,,,124,18,M,R,
274,22,22,6,2,33,47,684,['n'],1,right,['2'],5,949,[-0.08520531],96,47,medium,plus,dotcolour,alfa,,,124,18,M,R,
275,23,23,6,2,44,36,850,['n'],0,left,['3'],4,855,[-0.00221546],52,44,hard,plus,dotcolour,alfa,,,124,18,M,R,
276,24,24,6,2,36,44,900,['c'],0,right,['8'],3,842,[0.05038099],88,44,hard,plus,dotcolour,alfa,,,124,18,M,R,
277,25,25,6,2,36,44,834,['c'],0,right,['9'],2,1719,[-0.07375211],12,44,hard,plus,dotcolour,alfa,,,124,18,M,R,
278,26,26,6,2,44,36,732,['c'],1,left,['2'],5,9862,[0.46804372],100,44,hard,plus,dotcolour,alfa,,,124,18,M,R,
279,27,27,6,2,47,33,633,['n'],0,left,['0'],1,1801,[0.10908913],5,47,medium,plus,dotcolour,alfa,,,124,18,M,R,
280,28,28,6,2,36,44,1184,['c'],0,right,['2'],5,2506,[0.11905538],94,44,hard,plus,dotcolour,alfa,,,124,18,M,R,
281,29,29,6,2,53,27,666,['c'],1,left,['2'],5,379,[0.05106063],95,53,easy,plus,dotcolour,alfa,,,124,18,M,R,
282,30,30,6,2,36,44,784,['n'],1,right,['3'],4,822,[-0.20902811],100,44,hard,plus,dotcolour,alfa,,,124,18,M,R,
283,31,31,6,2,33,47,716,['n'],1,right,['3'],4,977,[-0.21680465],100,47,medium,plus,dotcolour,alfa,,,124,18,M,R,
284,32,32,6,2,33,47,534,['n'],1,right,['3'],4,631,[-0.25020583],100,47,medium,plus,dotcolour,alfa,,,124,18,M,R,
285,33,33,6,2,27,53,700,['n'],1,right,['2'],5,546,[-0.16938706],100,53,easy,plus,dotcolour,alfa,,,124,18,M,R,
286,34,34,6,2,44,36,885,['c'],1,left,['2'],5,834,[0.09866911],98,44,hard,plus,dotcolour,alfa,,,124,18,M,R,
287,35,35,6,2,53,27,1233,['c'],1,left,['2'],5,400,[0.07328778],98,53,easy,plus,dotcolour,alfa,,,124,18,M,R,
288,36,36,6,2,27,53,666,['n'],1,right,['2'],5,1327,[-0.22536774],100,53,easy,plus,dotcolour,alfa,,,124,18,M,R,
289,37,37,6,2,44,36,1050,['n'],0,left,['8'],3,985,[0.09730685],3,44,hard,plus,dotcolour,alfa,,,124,18,M,R,
290,38,38,6,2,47,33,699,['c'],1,left,['9'],2,3871,[0.40627014],100,47,medium,plus,dotcolour,alfa,,,124,18,M,R,
291,39,39,6,2,47,33,733,['c'],1,left,['2'],5,790,[0.14757047],100,47,medium,plus,dotcolour,alfa,,,124,18,M,R,
292,40,40,6,2,47,33,650,['c'],1,left,['3'],4,566,[0.12188999],100,47,medium,plus,dotcolour,alfa,,,124,18,M,R,
293,41,41,6,2,33,47,1118,['n'],1,right,['2'],5,1276,[0.01656827],37,47,medium,plus,dotcolour,alfa,,,124,18,M,R,
294,42,0,7,2,36,44,768,['n'],1,right,['2'],5,758,[-0.14029276],100,44,hard,plus,dotcolour,alfa,,,124,18,M,R,
295,43,1,7,2,36,44,783,['c'],0,right,['3'],4,314,[0.04406758],94,44,hard,plus,dotcolour,alfa,,,124,18,M,R,
296,44,2,7,2,47,33,767,['c'],1,left,['2'],5,1328,[0.21693926],100,47,medium,plus,dotcolour,alfa,,,124,18,M,R,
297,45,3,7,2,27,53,650,['n'],1,right,['2'],5,3345,[-0.611242],100,53,easy,plus,dotcolour,alfa,,,124,18,M,R,
298,46,4,7,2,33,47,717,['n'],1,right,['2'],5,1232,[-0.16368352],100,47,medium,plus,dotcolour,alfa,,,124,18,M,R,
299,47,5,7,2,27,53,733,['n'],1,right,['2'],5,329,[-0.22513225],100,53,easy,plus,dotcolour,alfa,,,124,18,M,R,
300,48,6,7,2,47,33,634,['c'],1,left,['1'],6,812,[0.21561474],100,47,medium,plus,dotcolour,alfa,,,124,18,M,R,
301,49,7,7,2,53,27,951,['c'],1,left,['1'],6,256,[0.0952791],100,53,easy,plus,dotcolour,alfa,,,124,18,M,R,
302,50,8,7,2,33,47,567,['n'],1,right,['2'],5,376,[-0.02766133],84,47,medium,plus,dotcolour,alfa,,,124,18,M,R,
303,51,9,7,2,27,53,499,['n'],1,right,['2'],5,325,[-0.15579974],100,53,easy,plus,dotcolour,alfa,,,124,18,M,R,
304,52,10,7,2,33,47,617,['n'],1,right,['2'],5,392,[-0.05502682],96,47,medium,plus,dotcolour,alfa,,,124,18,M,R,
305,53,11,7,2,44,36,716,['c'],1,left,['2'],5,717,[-0.00551207],44,44,hard,plus,dotcolour,alfa,,,124,18,M,R,
306,54,12,7,2,36,44,833,['n'],1,right,['3'],4,808,[-0.19050863],100,44,hard,plus,dotcolour,alfa,,,124,18,M,R,
307,55,13,7,2,47,33,667,['c'],1,left,['2'],5,334,[0.0393326],92,47,medium,plus,dotcolour,alfa,,,124,18,M,R,
308,56,14,7,2,33,47,517,['n'],1,right,['2'],5,1447,[-0.16336102],99,47,medium,plus,dotcolour,alfa,,,124,18,M,R,
309,57,15,7,2,44,36,783,['c'],1,left,['3'],4,462,[0.07460211],98,44,hard,plus,dotcolour,alfa,,,124,18,M,R,
310,58,16,7,2,33,47,600,['n'],1,right,['2'],5,493,[-0.15331655],100,47,medium,plus,dotcolour,alfa,,,124,18,M,R,
311,59,17,7,2,27,53,817,['n'],1,right,['2'],5,1201,[-0.17074759],100,53,easy,plus,dotcolour,alfa,,,124,18,M,R,
312,60,18,7,2,44,36,583,['c'],1,left,['2'],5,3067,[0.02616788],63,44,hard,plus,dotcolour,alfa,,,124,18,M,R,
313,61,19,7,2,27,53,550,['n'],1,right,['2'],5,2890,[-0.7826964],100,53,easy,plus,dotcolour,alfa,,,124,18,M,R,
314,62,20,7,2,27,53,583,['n'],1,right,['2'],5,1080,[-0.24716654],100,53,easy,plus,dotcolour,alfa,,,124,18,M,R,
315,63,21,7,2,27,53,583,['n'],1,right,['1'],6,351,[-0.25102653],100,53,easy,plus,dotcolour,alfa,,,124,18,M,R,
316,64,22,7,2,44,36,650,['c'],1,left,['2'],5,575,[0.07287045],97,44,hard,plus,dotcolour,alfa,,,124,18,M,R,
317,65,23,7,2,47,33,667,['c'],1,left,['2'],5,1048,[0.11699442],98,47,medium,plus,dotcolour,alfa,,,124,18,M,R,
318,66,24,7,2,47,33,983,['n'],0,left,['8'],3,1007,[0.04789842],15,47,medium,plus,dotcolour,alfa,,,124,18,M,R,
319,67,25,7,2,53,27,650,['c'],1,left,['2'],5,454,[0.02884106],82,53,easy,plus,dotcolour,alfa,,,124,18,M,R,
320,68,26,7,2,44,36,567,['c'],1,left,['2'],5,349,[0.02121701],78,44,hard,plus,dotcolour,alfa,,,124,18,M,R,
321,69,27,7,2,33,47,1051,['n'],1,right,['3'],4,455,[-0.18137965],100,47,medium,plus,dotcolour,alfa,,,124,18,M,R,
322,70,28,7,2,53,27,599,['c'],1,left,['2'],5,2318,[0.29639489],100,53,easy,plus,dotcolour,alfa,,,124,18,M,R,
323,71,29,7,2,36,44,583,['n'],1,right,['3'],4,530,[-0.08831389],99,44,hard,plus,dotcolour,alfa,,,124,18,M,R,
324,72,30,7,2,47,33,567,['c'],1,left,['3'],4,944,[-0.13404471],1,47,medium,plus,dotcolour,alfa,,,124,18,M,R,
325,73,31,7,2,53,27,567,['c'],1,left,['2'],5,1644,[0.23356079],100,53,easy,plus,dotcolour,alfa,,,124,18,M,R,
326,74,32,7,2,33,47,532,['n'],1,right,['2'],5,1159,[-0.2001924],100,47,medium,plus,dotcolour,alfa,,,124,18,M,R,
327,75,33,7,2,36,44,667,['n'],1,right,['3'],4,1431,[-0.12632016],98,44,hard,plus,dotcolour,alfa,,,124,18,M,R,
328,76,34,7,2,53,27,618,['c'],1,left,['2'],5,477,[0.20918654],100,53,easy,plus,dotcolour,alfa,,,124,18,M,R,
329,77,35,7,2,36,44,600,['n'],1,right,['3'],4,1931,[-0.16358935],99,44,hard,plus,dotcolour,alfa,,,124,18,M,R,
330,78,36,7,2,44,36,700,['n'],0,left,['2'],5,475,[0.03160905],16,44,hard,plus,dotcolour,alfa,,,124,18,M,R,
331,79,37,7,2,36,44,1317,['c'],0,right,['8'],3,908,[0.05562458],89,44,hard,plus,dotcolour,alfa,,,124,18,M,R,
332,80,38,7,2,53,27,649,['c'],1,left,['2'],5,1087,[0.17597578],100,53,easy,plus,dotcolour,alfa,,,124,18,M,R,
333,81,39,7,2,53,27,684,['c'],1,left,['3'],4,529,[0.20364054],100,53,easy,plus,dotcolour,alfa,,,124,18,M,R,
334,82,40,7,2,44,36,734,['n'],0,left,['3'],4,887,[-0.07747905],95,44,hard,plus,dotcolour,alfa,,,124,18,M,R,
335,83,41,7,2,47,33,768,['c'],1,left,['3'],4,654,[0.00445146],55,47,medium,plus,dotcolour,alfa,,,124,18,M,R,
336,84,0,8,2,47,33,800,['c'],1,left,['3'],4,1116,[0.00725232],56,47,medium,plus,dotcolour,alfa,,,124,18,M,R,
337,85,1,8,2,47,33,717,['n'],0,left,['3'],4,588,[-0.13557617],100,47,medium,plus,dotcolour,alfa,,,124,18,M,R,
338,86,2,8,2,36,44,617,['n'],1,right,['3'],4,653,[-0.10090938],99,44,hard,plus,dotcolour,alfa,,,124,18,M,R,
339,87,3,8,2,33,47,933,['n'],1,right,['8'],3,4326,[-0.73416229],100,47,medium,plus,dotcolour,alfa,,,124,18,M,R,
340,88,4,8,2,47,33,2517,['c'],1,left,['3'],4,3324,[0.57941254],100,47,medium,plus,dotcolour,alfa,,,124,18,M,R,
341,89,5,8,2,36,44,716,['n'],1,right,['3'],4,2307,[-0.11101352],93,44,hard,plus,dotcolour,alfa,,,124,18,M,R,
342,90,6,8,2,53,27,584,['c'],1,left,['2'],5,399,[0.1374237],100,53,easy,plus,dotcolour,alfa,,,124,18,M,R,
343,91,7,8,2,47,33,533,['c'],1,left,['3'],4,603,[-0.02034202],28,47,medium,plus,dotcolour,alfa,,,124,18,M,R,
344,92,8,8,2,27,53,934,['n'],1,right,['2'],5,607,[-0.17799075],100,53,easy,plus,dotcolour,alfa,,,124,18,M,R,
345,93,9,8,2,27,53,651,['n'],1,right,['2'],5,430,[-0.02029075],75,53,easy,plus,dotcolour,alfa,,,124,18,M,R,
346,94,10,8,2,53,27,699,['c'],1,left,['1'],6,105,[0.01059618],76,53,easy,plus,dotcolour,alfa,,,124,18,M,R,
347,95,11,8,2,36,44,817,['n'],1,right,['3'],4,583,[-0.21626244],100,44,hard,plus,dotcolour,alfa,,,124,18,M,R,
348,96,12,8,2,36,44,784,['n'],1,right,['2'],5,4521,[0.00952833],46,44,hard,plus,dotcolour,alfa,,,124,18,M,R,
349,97,13,8,2,44,36,617,['c'],1,left,['2'],5,852,[0.25657248],100,44,hard,plus,dotcolour,alfa,,,124,18,M,R,
350,98,14,8,2,44,36,851,['c'],1,left,['2'],5,1576,[0.20812906],100,44,hard,plus,dotcolour,alfa,,,124,18,M,R,
351,99,15,8,2,33,47,616,['n'],1,right,['2'],5,3354,[-0.47227138],100,47,medium,plus,dotcolour,alfa,,,124,18,M,R,
352,100,16,8,2,36,44,633,['n'],1,right,['2'],5,3363,[-0.12629637],92,44,hard,plus,dotcolour,alfa,,,124,18,M,R,
353,101,17,8,2,27,53,517,['n'],1,right,['2'],5,824,[-0.06899254],94,53,easy,plus,dotcolour,alfa,,,124,18,M,R,
354,102,18,8,2,53,27,551,['c'],1,left,['2'],5,570,[0.16315346],100,53,easy,plus,dotcolour,alfa,,,124,18,M,R,
355,103,19,8,2,53,27,551,['n'],0,left,['9'],2,1102,[0.17360385],0,53,easy,plus,dotcolour,alfa,,,124,18,M,R,
356,104,20,8,2,44,36,884,['c'],1,left,['3'],4,543,[0.07629803],98,44,hard,plus,dotcolour,alfa,,,124,18,M,R,
357,105,21,8,2,27,53,684,['n'],1,right,['2'],5,599,[-0.2001709],100,53,easy,plus,dotcolour,alfa,,,124,18,M,R,
358,106,22,8,2,47,33,533,['c'],1,left,['2'],5,1987,[0.30945932],100,47,medium,plus,dotcolour,alfa,,,124,18,M,R,
359,107,23,8,2,27,53,934,['n'],1,right,['2'],5,3039,[-0.25113817],99,53,easy,plus,dotcolour,alfa,,,124,18,M,R,
360,108,24,8,2,36,44,633,['n'],1,right,['2'],5,2157,[-0.09046071],90,44,hard,plus,dotcolour,alfa,,,124,18,M,R,
361,109,25,8,2,53,27,550,['c'],1,left,['2'],5,4817,[0.91088218],100,53,easy,plus,dotcolour,alfa,,,124,18,M,R,
362,110,26,8,2,33,47,717,['n'],1,right,['2'],5,604,[-0.17728732],100,47,medium,plus,dotcolour,alfa,,,124,18,M,R,
363,111,27,8,2,44,36,617,['c'],1,left,['3'],4,572,[0.12209832],100,44,hard,plus,dotcolour,alfa,,,124,18,M,R,
364,112,28,8,2,44,36,733,['c'],1,left,['2'],5,2160,[0.27410087],100,44,hard,plus,dotcolour,alfa,,,124,18,M,R,
365,113,29,8,2,44,36,633,['n'],0,left,['3'],4,681,[0.06857484],5,44,hard,plus,dotcolour,alfa,,,124,18,M,R,
366,114,30,8,2,27,53,517,['n'],1,right,['2'],5,1363,[-0.56917903],100,53,easy,plus,dotcolour,alfa,,,124,18,M,R,
367,115,31,8,2,33,47,634,['n'],1,right,['2'],5,364,[-0.17844418],100,47,medium,plus,dotcolour,alfa,,,124,18,M,R,
368,116,32,8,2,36,44,700,['n'],1,right,['2'],5,1507,[-0.00422115],53,44,hard,plus,dotcolour,alfa,,,124,18,M,R,
369,117,33,8,2,47,33,751,['c'],1,left,['2'],5,817,[0.24449469],100,47,medium,plus,dotcolour,alfa,,,124,18,M,R,
370,118,34,8,2,33,47,734,['c'],0,right,['3'],4,948,[0.07420823],94,47,medium,plus,dotcolour,alfa,,,124,18,M,R,
371,119,35,8,2,33,47,600,['n'],1,right,['2'],5,2183,[-0.28351028],100,47,medium,plus,dotcolour,alfa,,,124,18,M,R,
372,120,36,8,2,53,27,583,['c'],1,left,['1'],6,409,[0.27767359],100,53,easy,plus,dotcolour,alfa,,,124,18,M,R,
373,121,37,8,2,33,47,700,['n'],1,right,['1'],6,1046,[-0.10857352],98,47,medium,plus,dotcolour,alfa,,,124,18,M,R,
374,122,38,8,2,44,36,600,['c'],1,left,['2'],5,381,[0.0829802],99,44,hard,plus,dotcolour,alfa,,,124,18,M,R,
375,123,39,8,2,47,33,718,['c'],1,left,['2'],5,2011,[0.27477037],100,47,medium,plus,dotcolour,alfa,,,124,18,M,R,
376,124,40,8,2,53,27,566,['c'],1,left,['2'],5,1164,[0.46955344],100,53,easy,plus,dotcolour,alfa,,,124,18,M,R,
377,125,41,8,2,27,53,750,['n'],1,right,['2'],5,353,[-0.12635985],100,53,easy,plus,dotcolour,alfa,,,124,18,M,R,
378,0,0,9,3,33,47,684,['n'],1,right,['2'],5,1025,[-0.26855842],92,47,medium,minus,dotcolour,alfa,,,124,18,M,R,
379,1,1,9,3,44,36,633,['n'],0,left,['3'],4,1152,[0.10462144],29,44,hard,minus,dotcolour,alfa,,,124,18,M,R,
380,2,2,9,3,53,27,933,['c'],1,left,['1'],6,838,[0.22444663],90,53,easy,minus,dotcolour,alfa,,,124,18,M,R,
381,3,3,9,3,27,53,650,['n'],1,right,['1'],6,555,[-0.09423344],76,53,easy,minus,dotcolour,alfa,,,124,18,M,R,
382,4,4,9,3,36,44,649,['c'],0,right,['2'],5,2060,[-0.19980068],22,44,hard,minus,dotcolour,alfa,,,124,18,M,R,
383,5,5,9,3,36,44,550,['n'],1,right,['2'],5,1148,[-0.33358024],94,44,hard,minus,dotcolour,alfa,,,124,18,M,R,
384,6,6,9,3,36,44,550,['n'],1,right,['2'],5,1401,[-0.01878813],54,44,hard,minus,dotcolour,alfa,,,124,18,M,R,
385,7,7,9,3,47,33,683,['c'],1,left,['3'],4,470,[0.17954806],91,47,medium,minus,dotcolour,alfa,,,124,18,M,R,
386,8,8,9,3,36,44,649,['n'],1,right,['8'],3,3139,[-0.07518823],59,44,hard,minus,dotcolour,alfa,,,124,18,M,R,
387,9,9,9,3,53,27,600,['c'],1,left,['2'],5,1693,[0.12199762],70,53,easy,minus,dotcolour,alfa,,,124,18,M,R,
388,10,10,9,3,27,53,817,['n'],1,right,['2'],5,722,[-0.04003514],60,53,easy,minus,dotcolour,alfa,,,124,18,M,R,
389,11,11,9,3,44,36,533,['c'],1,left,['2'],5,1201,[0.21883512],86,44,hard,minus,dotcolour,alfa,,,124,18,M,R,
390,12,12,9,3,27,53,565,['n'],1,right,['2'],5,994,[-0.28150248],93,53,easy,minus,dotcolour,alfa,,,124,18,M,R,
391,13,13,9,3,36,44,517,['n'],1,right,['2'],5,407,[-0.11064941],83,44,hard,minus,dotcolour,alfa,,,124,18,M,R,
392,14,14,9,3,44,36,667,['c'],1,left,['2'],5,421,[0.10228923],81,44,hard,minus,dotcolour,alfa,,,124,18,M,R,
393,15,15,9,3,47,33,484,['c'],1,left,['9'],2,906,[0.23398143],90,47,medium,minus,dotcolour,alfa,,,124,18,M,R,
394,16,16,9,3,44,36,700,['c'],1,left,['2'],5,362,[0.14108465],89,44,hard,minus,dotcolour,alfa,,,124,18,M,R,
395,17,17,9,3,47,33,600,['c'],1,left,['2'],5,3085,[0.38421089],88,47,medium,minus,dotcolour,alfa,,,124,18,M,R,
396,18,18,9,3,33,47,766,['n'],1,right,['3'],4,2339,[-0.28388513],84,47,medium,minus,dotcolour,alfa,,,124,18,M,R,
397,19,19,9,3,47,33,600,['c'],1,left,['2'],5,1199,[0.22233849],86,47,medium,minus,dotcolour,alfa,,,124,18,M,R,
398,20,20,9,3,33,47,649,['n'],1,right,['3'],4,6574,[-0.50431111],85,47,medium,minus,dotcolour,alfa,,,124,18,M,R,
399,21,21,9,3,27,53,583,['n'],1,right,['1'],6,751,[-0.15742374],84,53,easy,minus,dotcolour,alfa,,,124,18,M,R,
400,22,22,9,3,53,27,484,['c'],1,left,['2'],5,623,[0.10343893],76,53,easy,minus,dotcolour,alfa,,,124,18,M,R,
401,23,23,9,3,33,47,583,['n'],1,right,['1'],6,272,[-0.15489],94,47,medium,minus,dotcolour,alfa,,,124,18,M,R,
402,24,24,9,3,53,27,699,['c'],1,left,['1'],6,258,[0.12000699],89,53,easy,minus,dotcolour,alfa,,,124,18,M,R,
403,25,25,9,3,47,33,983,['c'],1,left,['3'],4,1513,[0.18457045],79,47,medium,minus,dotcolour,alfa,,,124,18,M,R,
404,26,26,9,3,27,53,617,['n'],1,right,['2'],5,588,[-0.06747984],69,53,easy,minus,dotcolour,alfa,,,124,18,M,R,
405,27,27,9,3,27,53,599,['n'],1,right,['1'],6,310,[-0.19948242],96,53,easy,minus,dotcolour,alfa,,,124,18,M,R,
406,28,28,9,3,53,27,668,['c'],1,left,['2'],5,304,[0.16303355],93,53,easy,minus,dotcolour,alfa,,,124,18,M,R,
407,29,29,9,3,44,36,1333,['n'],0,left,['3'],4,856,[0.03094947],43,44,hard,minus,dotcolour,alfa,,,124,18,M,R,
408,30,30,9,3,33,47,667,['n'],1,right,['2'],5,1557,[-0.20039982],81,47,medium,minus,dotcolour,alfa,,,124,18,M,R,
409,31,31,9,3,33,47,800,['c'],0,right,['0'],1,1143,[-0.19737953],16,47,medium,minus,dotcolour,alfa,,,124,18,M,R,
410,32,32,9,3,27,53,617,['n'],1,right,['2'],5,714,[-0.09236175],73,53,easy,minus,dotcolour,alfa,,,124,18,M,R,
411,33,33,9,3,33,47,550,['n'],1,right,['2'],5,1656,[-0.33228067],91,47,medium,minus,dotcolour,alfa,,,124,18,M,R,
412,34,34,9,3,53,27,650,['c'],1,left,['2'],5,1893,[0.14088526],72,53,easy,minus,dotcolour,alfa,,,124,18,M,R,
413,35,35,9,3,36,44,550,['n'],1,right,['8'],3,1083,[-0.08675095],68,44,hard,minus,dotcolour,alfa,,,124,18,M,R,
414,36,36,9,3,53,27,650,['c'],1,left,['2'],5,3575,[0.53551172],93,53,easy,minus,dotcolour,alfa,,,124,18,M,R,
415,37,37,9,3,44,36,966,['n'],0,left,['3'],4,506,[-0.16290884],89,44,hard,minus,dotcolour,alfa,,,124,18,M,R,
416,38,38,9,3,47,33,484,['c'],1,left,['3'],4,483,[0.16947068],90,47,medium,minus,dotcolour,alfa,,,124,18,M,R,
417,39,39,9,3,44,36,766,['c'],1,left,['8'],3,1523,[0.23636738],85,44,hard,minus,dotcolour,alfa,,,124,18,M,R,
418,40,40,9,3,36,44,667,['n'],1,right,['2'],5,1180,[-0.18751406],83,44,hard,minus,dotcolour,alfa,,,124,18,M,R,
419,41,41,9,3,47,33,683,['n'],0,left,['3'],4,554,[-0.02914654],59,47,medium,minus,dotcolour,alfa,,,124,18,M,R,
420,42,0,10,3,36,44,767,['n'],1,right,['2'],5,548,[-0.08443954],74,44,hard,minus,dotcolour,alfa,,,124,18,M,R,
421,43,1,10,3,44,36,667,['c'],1,left,['2'],5,292,[0.106478],85,44,hard,minus,dotcolour,alfa,,,124,18,M,R,
422,44,2,10,3,47,33,884,['c'],1,left,['3'],4,366,[-0.01084522],46,47,medium,minus,dotcolour,alfa,,,124,18,M,R,
423,45,3,10,3,36,44,550,['n'],1,right,['2'],5,331,[-0.1414885],90,44,hard,minus,dotcolour,alfa,,,124,18,M,R,
424,46,4,10,3,27,53,617,['c'],0,right,['9'],2,902,[-0.26551603],7,53,easy,minus,dotcolour,alfa,,,124,18,M,R,
425,47,5,10,3,33,47,584,['n'],1,right,['2'],5,860,[-0.1305962],78,47,medium,minus,dotcolour,alfa,,,124,18,M,R,
426,48,6,10,3,36,44,834,['n'],1,right,['2'],5,2329,[-0.03769955],56,44,hard,minus,dotcolour,alfa,,,124,18,M,R,
427,49,7,10,3,44,36,650,['c'],1,left,['2'],5,1418,[0.2555245],87,44,hard,minus,dotcolour,alfa,,,124,18,M,R,
428,50,8,10,3,36,44,567,['n'],1,right,['2'],5,468,[-0.04009196],63,44,hard,minus,dotcolour,alfa,,,124,18,M,R,
429,51,9,10,3,33,47,667,['n'],1,right,['2'],5,664,[-0.10365908],76,47,medium,minus,dotcolour,alfa,,,124,18,M,R,
430,52,10,10,3,44,36,767,['c'],1,left,['1'],6,2064,[0.26942291],84,44,hard,minus,dotcolour,alfa,,,124,18,M,R,
431,53,11,10,3,47,33,850,['n'],0,left,['3'],4,692,[-0.03087684],58,47,medium,minus,dotcolour,alfa,,,124,18,M,R,
432,54,12,10,3,33,47,617,['n'],1,right,['3'],4,601,[-0.09621624],75,47,medium,minus,dotcolour,alfa,,,124,18,M,R,
433,55,13,10,3,27,53,533,['n'],1,right,['3'],4,2757,[-0.51894926],94,53,easy,minus,dotcolour,alfa,,,124,18,M,R,
434,56,14,10,3,44,36,734,['c'],1,left,['2'],5,297,[0.11670241],87,44,hard,minus,dotcolour,alfa,,,124,18,M,R,
435,57,15,10,3,36,44,1100,['c'],0,right,['9'],2,1011,[0.20488195],86,44,hard,minus,dotcolour,alfa,,,124,18,M,R,
436,58,16,10,3,27,53,600,['n'],1,right,['2'],5,3355,[-0.58128549],95,53,easy,minus,dotcolour,alfa,,,124,18,M,R,
437,59,17,10,3,47,33,617,['c'],1,left,['3'],4,829,[0.15491833],82,47,medium,minus,dotcolour,alfa,,,124,18,M,R,
438,60,18,10,3,47,33,1218,['c'],1,left,['2'],5,1892,[0.15978167],74,47,medium,minus,dotcolour,alfa,,,124,18,M,R,
439,61,19,10,3,27,53,567,['n'],1,right,['3'],4,1835,[-0.40575769],94,53,easy,minus,dotcolour,alfa,,,124,18,M,R,
440,62,20,10,3,53,27,666,['c'],1,left,['1'],6,23,[0.05152291],96,53,easy,minus,dotcolour,alfa,,,124,18,M,R,
441,63,21,10,3,53,27,1400,['c'],1,left,['2'],5,1705,[0.1253716],70,53,easy,minus,dotcolour,alfa,,,124,18,M,R,
442,64,22,10,3,44,36,1499,['c'],1,left,['3'],4,649,[0.11865363],79,44,hard,minus,dotcolour,alfa,,,124,18,M,R,
443,65,23,10,3,47,33,666,['c'],1,left,['3'],4,1278,[0.07404056],64,47,medium,minus,dotcolour,alfa,,,124,18,M,R,
444,66,24,10,3,33,47,550,['n'],1,right,['3'],4,2046,[-0.09420999],64,47,medium,minus,dotcolour,alfa,,,124,18,M,R,
445,67,25,10,3,53,27,916,['n'],0,left,['3'],4,888,[-0.03666337],59,53,easy,minus,dotcolour,alfa,,,124,18,M,R,
446,68,26,10,3,33,47,867,['n'],1,right,['2'],5,2339,[-0.49453518],95,47,medium,minus,dotcolour,alfa,,,124,18,M,R,
447,69,27,10,3,47,33,817,['c'],1,left,['2'],5,2229,[0.50526542],95,47,medium,minus,dotcolour,alfa,,,124,18,M,R,
448,70,28,10,3,53,27,584,['c'],1,left,['3'],4,606,[0.21691482],92,53,easy,minus,dotcolour,alfa,,,124,18,M,R,
449,71,29,10,3,27,53,616,['n'],1,right,['2'],5,710,[-0.15251943],84,53,easy,minus,dotcolour,alfa,,,124,18,M,R,
450,72,30,10,3,27,53,783,['n'],1,right,['2'],5,387,[-0.00916188],53,53,easy,minus,dotcolour,alfa,,,124,18,M,R,
451,73,31,10,3,47,33,584,['c'],1,left,['2'],5,1413,[0.22834553],85,47,medium,minus,dotcolour,alfa,,,124,18,M,R,
452,74,32,10,3,44,36,749,['c'],1,left,['2'],5,767,[0.19450883],88,44,hard,minus,dotcolour,alfa,,,124,18,M,R,
453,75,33,10,3,36,44,633,['n'],1,right,['2'],5,465,[-0.11986898],83,44,hard,minus,dotcolour,alfa,,,124,18,M,R,
454,76,34,10,3,53,27,599,['c'],1,left,['1'],6,311,[0.0568077],71,53,easy,minus,dotcolour,alfa,,,124,18,M,R,
455,77,35,10,3,53,27,716,['c'],1,left,['1'],6,303,[0.05010262],69,53,easy,minus,dotcolour,alfa,,,124,18,M,R,
456,78,36,10,3,53,27,750,['c'],1,left,['2'],5,423,[0.20578178],95,53,easy,minus,dotcolour,alfa,,,124,18,M,R,
457,79,37,10,3,33,47,701,['n'],1,right,['2'],5,451,[-0.17060906],91,47,medium,minus,dotcolour,alfa,,,124,18,M,R,
458,80,38,10,3,27,53,534,['n'],1,right,['2'],5,365,[-0.12430697],86,53,easy,minus,dotcolour,alfa,,,124,18,M,R,
459,81,39,10,3,33,47,633,['c'],0,right,['3'],4,766,[0.03865871],60,47,medium,minus,dotcolour,alfa,,,124,18,M,R,
460,82,40,10,3,44,36,815,['c'],1,left,['8'],3,1056,[0.24478923],90,44,hard,minus,dotcolour,alfa,,,124,18,M,R,
461,83,41,10,3,36,44,584,['n'],1,right,['2'],5,568,[-0.15150871],86,44,hard,minus,dotcolour,alfa,,,124,18,M,R,
462,84,0,11,3,47,33,668,['c'],1,left,['2'],5,1640,[0.38482271],94,47,medium,minus,dotcolour,alfa,,,124,18,M,R,
463,85,1,11,3,53,27,566,['c'],1,left,['2'],5,369,[0.16795668],92,53,easy,minus,dotcolour,alfa,,,124,18,M,R,
464,86,2,11,3,47,33,584,['c'],1,left,['2'],5,419,[0.0898175],78,47,medium,minus,dotcolour,alfa,,,124,18,M,R,
465,87,3,11,3,27,53,668,['n'],1,right,['1'],6,466,[-0.06895059],71,53,easy,minus,dotcolour,alfa,,,124,18,M,R,
466,88,4,11,3,47,33,567,['c'],1,left,['2'],5,402,[0.1283452],86,47,medium,minus,dotcolour,alfa,,,124,18,M,R,
467,89,5,11,3,47,33,733,['n'],0,left,['3'],4,558,[-0.10116583],77,47,medium,minus,dotcolour,alfa,,,124,18,M,R,
468,90,6,11,3,27,53,850,['n'],1,right,['1'],6,415,[-0.1340151],87,53,easy,minus,dotcolour,alfa,,,124,18,M,R,
469,91,7,11,3,53,27,634,['c'],1,left,['2'],5,350,[0.15947599],92,53,easy,minus,dotcolour,alfa,,,124,18,M,R,
470,92,8,11,3,47,33,600,['n'],0,left,['8'],3,2665,[0.10433693],36,47,medium,minus,dotcolour,alfa,,,124,18,M,R,
471,93,9,11,3,53,27,616,['n'],0,left,['9'],2,983,[-0.02015781],55,53,easy,minus,dotcolour,alfa,,,124,18,M,R,
472,94,10,11,3,33,47,750,['n'],1,right,['1'],6,323,[-0.15650213],92,47,medium,minus,dotcolour,alfa,,,124,18,M,R,
473,95,11,11,3,53,27,534,['c'],1,left,['2'],5,337,[-0.01305945],45,53,easy,minus,dotcolour,alfa,,,124,18,M,R,
474,96,12,11,3,33,47,567,['c'],0,right,['2'],5,1758,[-0.29568477],12,47,medium,minus,dotcolour,alfa,,,124,18,M,R,
475,97,13,11,3,44,36,633,['n'],0,left,['3'],4,1040,[-0.06043192],63,44,hard,minus,dotcolour,alfa,,,124,18,M,R,
476,98,14,11,3,36,44,650,['c'],0,right,['3'],4,4861,[0.17118328],67,44,hard,minus,dotcolour,alfa,,,124,18,M,R,
477,99,15,11,3,33,47,600,['n'],1,right,['2'],5,403,[-0.0107605],54,47,medium,minus,dotcolour,alfa,,,124,18,M,R,
478,100,16,11,3,27,53,683,['n'],1,right,['2'],5,1880,[-0.17728309],76,53,easy,minus,dotcolour,alfa,,,124,18,M,R,
479,101,17,11,3,44,36,767,['n'],0,left,['3'],4,1087,[0.00726184],48,44,hard,minus,dotcolour,alfa,,,124,18,M,R,
480,102,18,11,3,53,27,650,['c'],1,left,['2'],5,322,[0.05302053],70,53,easy,minus,dotcolour,alfa,,,124,18,M,R,
481,103,19,11,3,27,53,617,['n'],1,right,['2'],5,270,[-0.11189617],87,53,easy,minus,dotcolour,alfa,,,124,18,M,R,
482,104,20,11,3,36,44,767,['n'],1,right,['2'],5,774,[-0.17275246],85,44,hard,minus,dotcolour,alfa,,,124,18,M,R,
483,105,21,11,3,36,44,833,['n'],1,right,['2'],5,366,[-0.12470732],86,44,hard,minus,dotcolour,alfa,,,124,18,M,R,
484,106,22,11,3,33,47,584,['n'],1,right,['2'],5,370,[-0.04296166],65,47,medium,minus,dotcolour,alfa,,,124,18,M,R,
485,107,23,11,3,36,44,933,['c'],0,right,['1'],6,511,[0.00678618],52,44,hard,minus,dotcolour,alfa,,,124,18,M,R,
486,108,24,11,3,44,36,850,['c'],1,left,['3'],4,1138,[0.13693471],76,44,hard,minus,dotcolour,alfa,,,124,18,M,R,
487,109,25,11,3,27,53,534,['n'],1,right,['2'],5,320,[-0.10267974],84,53,easy,minus,dotcolour,alfa,,,124,18,M,R,
488,110,26,11,3,27,53,568,['n'],1,right,['2'],5,246,[-0.07332639],79,53,easy,minus,dotcolour,alfa,,,124,18,M,R,
489,111,27,11,3,44,36,884,['c'],1,left,['3'],4,546,[0.07612995],72,44,hard,minus,dotcolour,alfa,,,124,18,M,R,
490,112,28,11,3,36,44,667,['n'],1,right,['2'],5,1419,[-0.09828708],68,44,hard,minus,dotcolour,alfa,,,124,18,M,R,
491,113,29,11,3,33,47,700,['c'],0,right,['9'],2,935,[0.10006414],72,47,medium,minus,dotcolour,alfa,,,124,18,M,R,
492,114,30,11,3,36,44,600,['n'],1,right,['3'],4,3498,[-0.2446532],76,44,hard,minus,dotcolour,alfa,,,124,18,M,R,
493,115,31,11,3,44,36,1134,['c'],1,left,['2'],5,1050,[0.12739041],75,44,hard,minus,dotcolour,alfa,,,124,18,M,R,
494,116,32,11,3,33,47,684,['n'],1,right,['3'],4,556,[-0.09490805],76,47,medium,minus,dotcolour,alfa,,,124,18,M,R,
495,117,33,11,3,33,47,600,['n'],1,right,['2'],5,1488,[-0.21716414],83,47,medium,minus,dotcolour,alfa,,,124,18,M,R,
496,118,34,11,3,53,27,467,['n'],0,left,['0'],1,1042,[0.05915124],37,53,easy,minus,dotcolour,alfa,,,124,18,M,R,
497,119,35,11,3,44,36,1283,['c'],1,left,['3'],4,374,[-0.02256595],42,44,hard,minus,dotcolour,alfa,,,124,18,M,R,
498,120,36,11,3,53,27,783,['c'],1,left,['2'],5,1169,[0.15394323],78,53,easy,minus,dotcolour,alfa,,,124,18,M,R,
499,121,37,11,3,47,33,951,['n'],0,left,['2'],5,1141,[0.0963168],31,47,medium,minus,dotcolour,alfa,,,124,18,M,R,
500,122,38,11,3,47,33,683,['c'],1,left,['2'],5,493,[-0.00218428],49,47,medium,minus,dotcolour,alfa,,,124,18,M,R,
501,123,39,11,3,36,44,650,['n'],1,right,['2'],5,464,[-0.01117328],54,44,hard,minus,dotcolour,alfa,,,124,18,M,R,
502,124,40,11,3,44,36,649,['c'],1,left,['3'],4,525,[0.0334999],60,44,hard,minus,dotcolour,alfa,,,124,18,M,R,
503,125,41,11,3,27,53,550,['n'],1,right,['2'],5,355,[-0.10133702],82,53,easy,minus,dotcolour,alfa,,,124,18,M,R,
504,0,0,12,4,27,53,500,['n'],1,right,['1'],6,636,[-0.15689694],100,53,easy,plus,dotcolour,alfa,,,124,18,M,R,
505,1,1,12,4,47,33,600,['c'],1,left,['1'],6,235,[0.22866531],100,47,medium,plus,dotcolour,alfa,,,124,18,M,R,
506,2,2,12,4,36,44,567,['n'],1,right,['2'],5,276,[-0.08895425],100,44,hard,plus,dotcolour,alfa,,,124,18,M,R,
507,3,3,12,4,36,44,716,['n'],1,right,['3'],4,942,[-0.23822733],100,44,hard,plus,dotcolour,alfa,,,124,18,M,R,
508,4,4,12,4,47,33,584,['c'],1,left,['2'],5,458,[0.05361591],95,47,medium,plus,dotcolour,alfa,,,124,18,M,R,
509,5,5,12,4,33,47,517,['n'],1,right,['2'],5,300,[-0.12626872],100,47,medium,plus,dotcolour,alfa,,,124,18,M,R,
510,6,6,12,4,36,44,650,['n'],1,right,['3'],4,399,[-0.12162582],100,44,hard,plus,dotcolour,alfa,,,124,18,M,R,
511,7,7,12,4,53,27,533,['c'],1,left,['2'],5,539,[0.15862042],100,53,easy,plus,dotcolour,alfa,,,124,18,M,R,
512,8,8,12,4,27,53,733,['n'],1,right,['2'],5,409,[-0.19279836],100,53,easy,plus,dotcolour,alfa,,,124,18,M,R,
513,9,9,12,4,44,36,501,['c'],1,left,['2'],5,582,[0.18050995],100,44,hard,plus,dotcolour,alfa,,,124,18,M,R,
514,10,10,12,4,27,53,534,['n'],1,right,['1'],6,355,[-0.07184837],99,53,easy,plus,dotcolour,alfa,,,124,18,M,R,
515,11,11,12,4,33,47,450,['n'],1,right,['2'],5,331,[-0.09183982],100,47,medium,plus,dotcolour,alfa,,,124,18,M,R,
516,12,12,12,4,36,44,850,['c'],0,right,['2'],5,413,[0.06445293],97,44,hard,plus,dotcolour,alfa,,,124,18,M,R,
517,13,13,12,4,36,44,517,['n'],1,right,['2'],5,257,[-0.03818377],94,44,hard,plus,dotcolour,alfa,,,124,18,M,R,
518,14,14,12,4,44,36,684,['c'],1,left,['3'],4,645,[0.23531819],100,44,hard,plus,dotcolour,alfa,,,124,18,M,R,
519,15,15,12,4,27,53,517,['n'],1,right,['3'],4,448,[-0.06847637],98,53,easy,plus,dotcolour,alfa,,,124,18,M,R,
520,16,16,12,4,44,36,450,['n'],0,left,['8'],3,868,[-0.16276809],100,44,hard,plus,dotcolour,alfa,,,124,18,M,R,
521,17,17,12,4,44,36,917,['c'],1,left,['2'],5,5183,[0.5925899],100,44,hard,plus,dotcolour,alfa,,,124,18,M,R,
522,18,18,12,4,53,27,600,['c'],1,left,['1'],6,727,[0.16609258],100,53,easy,plus,dotcolour,alfa,,,124,18,M,R,
523,19,19,12,4,53,27,717,['c'],1,left,['3'],4,1358,[0.05230426],83,53,easy,plus,dotcolour,alfa,,,124,18,M,R,
524,20,20,12,4,33,47,600,['n'],1,right,['2'],5,1513,[-0.24461017],100,47,medium,plus,dotcolour,alfa,,,124,18,M,R,
525,21,21,12,4,47,33,550,['c'],1,left,['1'],6,1111,[0.20841572],100,47,medium,plus,dotcolour,alfa,,,124,18,M,R,
526,22,22,12,4,36,44,666,['n'],1,right,['2'],5,945,[-0.15401658],100,44,hard,plus,dotcolour,alfa,,,124,18,M,R,
527,23,23,12,4,27,53,551,['n'],1,right,['3'],4,654,[-0.1819915],100,53,easy,plus,dotcolour,alfa,,,124,18,M,R,
528,24,24,12,4,53,27,517,['c'],1,left,['2'],5,513,[0.18663136],100,53,easy,plus,dotcolour,alfa,,,124,18,M,R,
529,25,25,12,4,47,33,716,['n'],0,left,['9'],2,657,[0.03219285],19,47,medium,plus,dotcolour,alfa,,,124,18,M,R,
530,26,26,12,4,53,27,617,['c'],1,left,['1'],6,479,[0.20139455],100,53,easy,plus,dotcolour,alfa,,,124,18,M,R,
531,27,27,12,4,47,33,1100,['c'],1,left,['2'],5,441,[0.19781957],100,47,medium,plus,dotcolour,alfa,,,124,18,M,R,
532,28,28,12,4,33,47,584,['n'],1,right,['2'],5,705,[-0.21049818],100,47,medium,plus,dotcolour,alfa,,,124,18,M,R,
533,29,29,12,4,33,47,767,['n'],1,right,['3'],4,735,[-0.21981924],100,47,medium,plus,dotcolour,alfa,,,124,18,M,R,
534,30,30,12,4,44,36,583,['c'],1,left,['2'],5,283,[0.16682734],100,44,hard,plus,dotcolour,alfa,,,124,18,M,R,
535,31,31,12,4,33,47,599,['n'],1,right,['2'],5,449,[0.08302337],1,47,medium,plus,dotcolour,alfa,,,124,18,M,R,
536,32,32,12,4,53,27,734,['c'],1,left,['1'],6,203,[0.11360222],100,53,easy,plus,dotcolour,alfa,,,124,18,M,R,
537,33,33,12,4,27,53,484,['n'],1,right,['1'],6,425,[-0.12318838],100,53,easy,plus,dotcolour,alfa,,,124,18,M,R,
538,34,34,12,4,44,36,684,['c'],1,left,['1'],6,270,[0.17215023],100,44,hard,plus,dotcolour,alfa,,,124,18,M,R,
539,35,35,12,4,33,47,567,['n'],1,right,['1'],6,350,[-0.04077689],92,47,medium,plus,dotcolour,alfa,,,124,18,M,R,
540,36,36,12,4,44,36,933,['c'],1,left,['3'],4,980,[0.15749185],100,44,hard,plus,dotcolour,alfa,,,124,18,M,R,
541,37,37,12,4,47,33,834,['c'],1,left,['1'],6,636,[0.21814433],100,47,medium,plus,dotcolour,alfa,,,124,18,M,R,
542,38,38,12,4,47,33,567,['c'],1,left,['2'],5,277,[0.13713532],100,47,medium,plus,dotcolour,alfa,,,124,18,M,R,
543,39,39,12,4,36,44,817,['c'],0,right,['8'],3,1363,[0.00284423],52,44,hard,plus,dotcolour,alfa,,,124,18,M,R,
544,40,40,12,4,27,53,782,['n'],1,right,['2'],5,798,[-0.22081933],100,53,easy,plus,dotcolour,alfa,,,124,18,M,R,
545,41,41,12,4,53,27,817,['c'],1,left,['1'],6,2175,[0.25391568],100,53,easy,plus,dotcolour,alfa,,,124,18,M,R,
546,42,0,13,4,47,33,584,['c'],1,left,['2'],5,4219,[0.45011721],100,47,medium,plus,dotcolour,alfa,,,124,18,M,R,
547,43,1,13,4,33,47,500,['n'],1,right,['3'],4,446,[-0.14338376],100,47,medium,plus,dotcolour,alfa,,,124,18,M,R,
548,44,2,13,4,53,27,466,['c'],1,left,['2'],5,299,[0.130339],100,53,easy,plus,dotcolour,alfa,,,124,18,M,R,
549,45,3,13,4,44,36,583,['c'],1,left,['3'],4,321,[0.1148791],100,44,hard,plus,dotcolour,alfa,,,124,18,M,R,
550,46,4,13,4,44,36,550,['c'],1,left,['8'],3,792,[-0.06445146],7,44,hard,plus,dotcolour,alfa,,,124,18,M,R,
551,47,5,13,4,33,47,734,['n'],1,right,['2'],5,644,[-0.20745351],100,47,medium,plus,dotcolour,alfa,,,124,18,M,R,
552,48,6,13,4,33,47,933,['n'],1,right,['2'],5,878,[-0.3224526],100,47,medium,plus,dotcolour,alfa,,,124,18,M,R,
553,49,7,13,4,44,36,583,['c'],1,left,['1'],6,749,[0.20458465],100,44,hard,plus,dotcolour,alfa,,,124,18,M,R,
554,50,8,13,4,47,33,500,['c'],1,left,['1'],6,284,[0.03564257],92,47,medium,plus,dotcolour,alfa,,,124,18,M,R,
555,51,9,13,4,36,44,450,['n'],1,right,['2'],5,616,[-0.10427358],99,44,hard,plus,dotcolour,alfa,,,124,18,M,R,
556,52,10,13,4,47,33,650,['c'],1,left,['1'],6,1126,[0.16809525],100,47,medium,plus,dotcolour,alfa,,,124,18,M,R,
557,53,11,13,4,36,44,666,['c'],0,right,['3'],4,896,[0.23133547],100,44,hard,plus,dotcolour,alfa,,,124,18,M,R,
558,54,12,13,4,33,47,767,['n'],1,right,['2'],5,558,[-0.22620838],100,47,medium,plus,dotcolour,alfa,,,124,18,M,R,
559,55,13,13,4,53,27,600,['c'],1,left,['1'],6,801,[-0.02285719],29,53,easy,plus,dotcolour,alfa,,,124,18,M,R,
560,56,14,13,4,27,53,534,['n'],1,right,['2'],5,397,[-0.21628198],100,53,easy,plus,dotcolour,alfa,,,124,18,M,R,
561,57,15,13,4,33,47,583,['n'],1,right,['2'],5,863,[-0.18224824],100,47,medium,plus,dotcolour,alfa,,,124,18,M,R,
562,58,16,13,4,44,36,634,['c'],1,left,['2'],5,693,[0.10779392],99,44,hard,plus,dotcolour,alfa,,,124,18,M,R,
563,59,17,13,4,44,36,567,['c'],1,left,['2'],5,579,[0.10426849],99,44,hard,plus,dotcolour,alfa,,,124,18,M,R,
564,60,18,13,4,27,53,534,['n'],1,right,['2'],5,223,[-0.09668805],100,53,easy,plus,dotcolour,alfa,,,124,18,M,R,
565,61,19,13,4,47,33,650,['c'],1,left,['2'],5,293,[0.07957421],99,47,medium,plus,dotcolour,alfa,,,124,18,M,R,
566,62,20,13,4,36,44,533,['n'],1,right,['2'],5,597,[-0.10539991],99,44,hard,plus,dotcolour,alfa,,,124,18,M,R,
567,63,21,13,4,36,44,683,['c'],0,right,['2'],5,291,[0.07503975],99,44,hard,plus,dotcolour,alfa,,,124,18,M,R,
568,64,22,13,4,47,33,650,['n'],0,left,['8'],3,888,[0.00919922],41,47,medium,plus,dotcolour,alfa,,,124,18,M,R,
569,65,23,13,4,47,33,667,['n'],0,left,['0'],1,1314,[0.17182516],0,47,medium,plus,dotcolour,alfa,,,124,18,M,R,
570,66,24,13,4,44,36,599,['c'],1,left,['2'],5,262,[0.0809951],100,44,hard,plus,dotcolour,alfa,,,124,18,M,R,
571,67,25,13,4,27,53,616,['c'],0,right,['0'],1,996,[-0.06094016],10,53,easy,plus,dotcolour,alfa,,,124,18,M,R,
572,68,26,13,4,27,53,668,['n'],1,right,['2'],5,1043,[-0.23960304],100,53,easy,plus,dotcolour,alfa,,,124,18,M,R,
573,69,27,13,4,44,36,583,['c'],1,left,['1'],6,1635,[0.16169283],99,44,hard,plus,dotcolour,alfa,,,124,18,M,R,
574,70,28,13,4,53,27,482,['c'],1,left,['2'],5,264,[0.12258629],100,53,easy,plus,dotcolour,alfa,,,124,18,M,R,
575,71,29,13,4,36,44,584,['n'],1,right,['2'],5,614,[-0.11208636],99,44,hard,plus,dotcolour,alfa,,,124,18,M,R,
576,72,30,13,4,27,53,599,['n'],1,right,['1'],6,464,[-0.21466742],100,53,easy,plus,dotcolour,alfa,,,124,18,M,R,
577,73,31,13,4,53,27,517,['c'],1,left,['2'],5,282,[0.12933316],100,53,easy,plus,dotcolour,alfa,,,124,18,M,R,
578,74,32,13,4,47,33,649,['c'],1,left,['1'],6,277,[0.10466201],100,47,medium,plus,dotcolour,alfa,,,124,18,M,R,
579,75,33,13,4,27,53,501,['n'],1,right,['1'],6,343,[-0.14801931],100,53,easy,plus,dotcolour,alfa,,,124,18,M,R,
580,76,34,13,4,36,44,601,['n'],1,right,['2'],5,299,[-0.15393285],100,44,hard,plus,dotcolour,alfa,,,124,18,M,R,
581,77,35,13,4,33,47,583,['n'],1,right,['2'],5,905,[-0.27907294],100,47,medium,plus,dotcolour,alfa,,,124,18,M,R,
582,78,36,13,4,36,44,532,['n'],1,right,['2'],5,184,[-0.07599682],100,44,hard,plus,dotcolour,alfa,,,124,18,M,R,
583,79,37,13,4,27,53,534,['n'],1,right,['2'],5,181,[-0.03334249],94,53,easy,plus,dotcolour,alfa,,,124,18,M,R,
584,80,38,13,4,53,27,483,['c'],1,left,['2'],5,156,[0.02957766],94,53,easy,plus,dotcolour,alfa,,,124,18,M,R,
585,81,39,13,4,33,47,517,['n'],1,right,['2'],5,377,[-0.08531973],99,47,medium,plus,dotcolour,alfa,,,124,18,M,R,
586,82,40,13,4,53,27,532,['c'],1,left,['1'],6,1174,[0.35590087],100,53,easy,plus,dotcolour,alfa,,,124,18,M,R,
587,83,41,13,4,53,27,717,['c'],1,left,['1'],6,604,[0.18437432],100,53,easy,plus,dotcolour,alfa,,,124,18,M,R,
588,84,0,14,4,44,36,968,['n'],0,left,['2'],5,2432,[0.11986413],6,44,hard,plus,dotcolour,alfa,,,124,18,M,R,
589,85,1,14,4,36,44,666,['n'],1,right,['2'],5,373,[-0.18654902],100,44,hard,plus,dotcolour,alfa,,,124,18,M,R,
590,86,2,14,4,44,36,917,['c'],1,left,['2'],5,506,[0.20407111],100,44,hard,plus,dotcolour,alfa,,,124,18,M,R,
591,87,3,14,4,53,27,618,['c'],1,left,['2'],5,1910,[0.27078104],100,53,easy,plus,dotcolour,alfa,,,124,18,M,R,
592,88,4,14,4,33,47,600,['n'],1,right,['2'],5,314,[-0.09690837],100,47,medium,plus,dotcolour,alfa,,,124,18,M,R,
593,89,5,14,4,27,53,616,['n'],1,right,['1'],6,214,[-0.17387904],100,53,easy,plus,dotcolour,alfa,,,124,18,M,R,
594,90,6,14,4,27,53,416,['n'],1,right,['1'],6,326,[-0.15677995],100,53,easy,plus,dotcolour,alfa,,,124,18,M,R,
595,91,7,14,4,33,47,467,['n'],1,right,['2'],5,944,[-0.18231505],100,47,medium,plus,dotcolour,alfa,,,124,18,M,R,
596,92,8,14,4,27,53,566,['n'],1,right,['1'],6,269,[-0.16725661],100,53,easy,plus,dotcolour,alfa,,,124,18,M,R,
597,93,9,14,4,44,36,483,['c'],1,left,['2'],5,368,[0.14792805],100,44,hard,plus,dotcolour,alfa,,,124,18,M,R,
598,94,10,14,4,53,27,517,['c'],1,left,['3'],4,590,[0.07512357],97,53,easy,plus,dotcolour,alfa,,,124,18,M,R,
599,95,11,14,4,47,33,551,['c'],1,left,['2'],5,273,[0.15525247],100,47,medium,plus,dotcolour,alfa,,,124,18,M,R,
600,96,12,14,4,36,44,484,['n'],1,right,['2'],5,228,[-0.0600696],99,44,hard,plus,dotcolour,alfa,,,124,18,M,R,
601,97,13,14,4,27,53,467,['n'],1,right,['2'],5,185,[-0.0987142],100,53,easy,plus,dotcolour,alfa,,,124,18,M,R,
602,98,14,14,4,36,44,516,['n'],1,right,['2'],5,223,[-0.10498742],100,44,hard,plus,dotcolour,alfa,,,124,18,M,R,
603,99,15,14,4,44,36,700,['n'],0,left,['9'],2,915,[-0.05771051],90,44,hard,plus,dotcolour,alfa,,,124,18,M,R,
604,100,16,14,4,36,44,583,['n'],1,right,['2'],5,512,[-0.16334539],100,44,hard,plus,dotcolour,alfa,,,124,18,M,R,
605,101,17,14,4,47,33,765,['c'],1,left,['2'],5,830,[0.09149868],97,47,medium,plus,dotcolour,alfa,,,124,18,M,R,
606,102,18,14,4,53,27,633,['c'],1,left,['1'],6,293,[0.01314887],71,53,easy,plus,dotcolour,alfa,,,124,18,M,R,
607,103,19,14,4,53,27,633,['c'],1,left,['1'],6,161,[0.13590194],100,53,easy,plus,dotcolour,alfa,,,124,18,M,R,
608,104,20,14,4,47,33,883,['c'],1,left,['2'],5,1001,[0.15912063],100,47,medium,plus,dotcolour,alfa,,,124,18,M,R,
609,105,21,14,4,53,27,484,['c'],1,left,['2'],5,421,[0.15114849],100,53,easy,plus,dotcolour,alfa,,,124,18,M,R,
610,106,22,14,4,27,53,567,['n'],1,right,['1'],6,263,[-0.06319371],99,53,easy,plus,dotcolour,alfa,,,124,18,M,R,
611,107,23,14,4,33,47,616,['n'],1,right,['1'],6,174,[-0.07184594],100,47,medium,plus,dotcolour,alfa,,,124,18,M,R,
612,108,24,14,4,47,33,899,['c'],1,left,['2'],5,555,[0.02307933],75,47,medium,plus,dotcolour,alfa,,,124,18,M,R,
613,109,25,14,4,44,36,783,['c'],1,left,['2'],5,334,[0.10316396],100,44,hard,plus,dotcolour,alfa,,,124,18,M,R,
614,110,26,14,4,47,33,583,['c'],1,left,['2'],5,388,[0.09521864],100,47,medium,plus,dotcolour,alfa,,,124,18,M,R,
615,111,27,14,4,27,53,767,['c'],0,right,['0'],1,1710,[-0.19925236],0,53,easy,plus,dotcolour,alfa,,,124,18,M,R,
616,112,28,14,4,33,47,532,['n'],1,right,['2'],5,295,[-0.06128936],98,47,medium,plus,dotcolour,alfa,,,124,18,M,R,
617,113,29,14,4,33,47,916,['c'],0,right,['2'],5,495,[-0.03266333],16,47,medium,plus,dotcolour,alfa,,,124,18,M,R,
618,114,30,14,4,44,36,567,['c'],1,left,['2'],5,453,[0.15180346],100,44,hard,plus,dotcolour,alfa,,,124,18,M,R,
619,115,31,14,4,47,33,516,['n'],0,left,['2'],5,280,[-0.04765026],96,47,medium,plus,dotcolour,alfa,,,124,18,M,R,
620,116,32,14,4,36,44,484,['n'],1,right,['2'],5,194,[-0.063043],99,44,hard,plus,dotcolour,alfa,,,124,18,M,R,
621,117,33,14,4,27,53,484,['n'],1,right,['3'],4,824,[-0.20349832],100,53,easy,plus,dotcolour,alfa,,,124,18,M,R,
622,118,34,14,4,33,47,400,['n'],1,right,['2'],5,360,[-0.19842907],100,47,medium,plus,dotcolour,alfa,,,124,18,M,R,
623,119,35,14,4,53,27,366,['n'],0,left,['0'],1,956,[0.035266],21,53,easy,plus,dotcolour,alfa,,,124,18,M,R,
624,120,36,14,4,53,27,450,['c'],1,left,['1'],6,493,[0.16116182],100,53,easy,plus,dotcolour,alfa,,,124,18,M,R,
625,121,37,14,4,36,44,1349,['n'],1,right,['2'],5,1052,[0.00634835],44,44,hard,plus,dotcolour,alfa,,,124,18,M,R,
626,122,38,14,4,44,36,1300,['c'],1,left,['2'],5,599,[0.2053779],100,44,hard,plus,dotcolour,alfa,,,124,18,M,R,
627,123,39,14,4,33,47,616,['n'],1,right,['3'],4,1280,[-0.10143466],96,47,medium,plus,dotcolour,alfa,,,124,18,M,R,
628,124,40,14,4,36,44,533,['n'],1,right,['9'],2,1152,[-0.03368951],76,44,hard,plus,dotcolour,alfa,,,124,18,M,R,
629,125,41,14,4,47,33,534,['c'],1,left,['3'],4,1222,[0.06858345],90,47,medium,plus,dotcolour,alfa,,,124,18,M,R,
630,0,0,15,5,44,36,751,['n'],0,left,['2'],5,671,[-0.06678077],68,44,hard,minus,dotcolour,alfa,,,124,18,M,R,
631,1,1,15,5,27,53,383,['n'],1,right,['2'],5,270,[-0.09346734],83,53,easy,minus,dotcolour,alfa,,,124,18,M,R,
632,2,2,15,5,33,47,417,['n'],1,right,['3'],4,1164,[-0.26639925],90,47,medium,minus,dotcolour,alfa,,,124,18,M,R,
633,3,3,15,5,27,53,366,['n'],1,right,['2'],5,336,[-0.19117493],95,53,easy,minus,dotcolour,alfa,,,124,18,M,R,
634,4,4,15,5,27,53,500,['n'],1,right,['2'],5,448,[-0.11763253],83,53,easy,minus,dotcolour,alfa,,,124,18,M,R,
635,5,5,15,5,33,47,433,['n'],1,right,['2'],5,302,[-0.07295721],77,47,medium,minus,dotcolour,alfa,,,124,18,M,R,
636,6,6,15,5,53,27,367,['n'],0,left,['9'],2,701,[0.08332359],29,53,easy,minus,dotcolour,alfa,,,124,18,M,R,
637,7,7,15,5,27,53,500,['n'],1,right,['3'],4,2654,[-0.60616143],97,53,easy,minus,dotcolour,alfa,,,124,18,M,R,
638,8,8,15,5,44,36,933,['c'],1,left,['2'],5,311,[0.14730478],92,44,hard,minus,dotcolour,alfa,,,124,18,M,R,
639,9,9,15,5,44,36,633,['n'],0,left,['9'],2,754,[-0.01033516],53,44,hard,minus,dotcolour,alfa,,,124,18,M,R,
640,10,10,15,5,36,44,683,['c'],0,right,['2'],5,1505,[0.22149401],84,44,hard,minus,dotcolour,alfa,,,124,18,M,R,
641,11,11,15,5,53,27,584,['c'],1,left,['2'],5,1183,[0.3302331],94,53,easy,minus,dotcolour,alfa,,,124,18,M,R,
642,12,12,15,5,36,44,634,['n'],1,right,['2'],5,223,[-0.10074489],87,44,hard,minus,dotcolour,alfa,,,124,18,M,R,
643,13,13,15,5,36,44,633,['n'],1,right,['3'],4,358,[-0.10297834],82,44,hard,minus,dotcolour,alfa,,,124,18,M,R,
644,14,14,15,5,36,44,717,['c'],0,right,['8'],3,1075,[0.10201944],71,44,hard,minus,dotcolour,alfa,,,124,18,M,R,
645,15,15,15,5,53,27,701,['c'],1,left,['2'],5,294,[0.1679285],94,53,easy,minus,dotcolour,alfa,,,124,18,M,R,
646,16,16,15,5,44,36,584,['c'],1,left,['2'],5,268,[0.05310341],72,44,hard,minus,dotcolour,alfa,,,124,18,M,R,
647,17,17,15,5,36,44,667,['n'],1,right,['2'],5,360,[-0.08311256],78,44,hard,minus,dotcolour,alfa,,,124,18,M,R,
648,18,18,15,5,33,47,650,['c'],0,right,['3'],4,968,[-0.00116202],50,47,medium,minus,dotcolour,alfa,,,124,18,M,R,
649,19,19,15,5,33,47,500,['n'],1,right,['2'],5,1495,[-0.2354036],85,47,medium,minus,dotcolour,alfa,,,124,18,M,R,
650,20,20,15,5,47,33,616,['c'],1,left,['1'],6,355,[0.06481934],73,47,medium,minus,dotcolour,alfa,,,124,18,M,R,
651,21,21,15,5,47,33,634,['n'],0,left,['9'],2,804,[0.13851466],20,47,medium,minus,dotcolour,alfa,,,124,18,M,R,
652,22,22,15,5,47,33,567,['c'],1,left,['2'],5,287,[0.12472721],89,47,medium,minus,dotcolour,alfa,,,124,18,M,R,
653,23,23,15,5,36,44,567,['n'],1,right,['2'],5,574,[-0.088799],74,44,hard,minus,dotcolour,alfa,,,124,18,M,R,
654,24,24,15,5,47,33,683,['c'],1,left,['1'],6,213,[0.05190736],73,47,medium,minus,dotcolour,alfa,,,124,18,M,R,
655,25,25,15,5,27,53,750,['c'],0,right,['2'],5,239,[0.14453951],93,53,easy,minus,dotcolour,alfa,,,124,18,M,R,
656,26,26,15,5,53,27,533,['c'],1,left,['2'],5,177,[0.11544417],92,53,easy,minus,dotcolour,alfa,,,124,18,M,R,
657,27,27,15,5,44,36,700,['c'],1,left,['3'],4,527,[-0.02426177],43,44,hard,minus,dotcolour,alfa,,,124,18,M,R,
658,28,28,15,5,33,47,451,['n'],1,right,['3'],4,1194,[-0.34169498],94,47,medium,minus,dotcolour,alfa,,,124,18,M,R,
659,29,29,15,5,53,27,583,['c'],1,left,['2'],5,643,[0.20825665],91,53,easy,minus,dotcolour,alfa,,,124,18,M,R,
660,30,30,15,5,27,53,618,['n'],1,right,['2'],5,642,[-0.15232199],85,53,easy,minus,dotcolour,alfa,,,124,18,M,R,
661,31,31,15,5,44,36,650,['c'],1,left,['3'],4,368,[0.05317137],69,44,hard,minus,dotcolour,alfa,,,124,18,M,R,
662,32,32,15,5,47,33,517,['c'],1,left,['2'],5,277,[0.09674986],84,47,medium,minus,dotcolour,alfa,,,124,18,M,R,
663,33,33,15,5,47,33,467,['c'],1,left,['1'],6,729,[0.0447155],62,47,medium,minus,dotcolour,alfa,,,124,18,M,R,
664,34,34,15,5,33,47,766,['n'],1,right,['2'],5,367,[-0.07267861],75,47,medium,minus,dotcolour,alfa,,,124,18,M,R,
665,35,35,15,5,53,27,634,['c'],1,left,['1'],6,232,[0.13997139],93,53,easy,minus,dotcolour,alfa,,,124,18,M,R,
666,36,36,15,5,47,33,600,['n'],0,left,['2'],5,711,[-0.0619297],66,47,medium,minus,dotcolour,alfa,,,124,18,M,R,
667,37,37,15,5,36,44,900,['c'],0,right,['8'],3,2225,[-0.10167855],35,44,hard,minus,dotcolour,alfa,,,124,18,M,R,
668,38,38,15,5,44,36,750,['n'],0,left,['8'],3,682,[-0.09086476],73,44,hard,minus,dotcolour,alfa,,,124,18,M,R,
669,39,39,15,5,27,53,783,['n'],1,right,['2'],5,977,[-0.40942527],98,53,easy,minus,dotcolour,alfa,,,124,18,M,R,
670,40,40,15,5,33,47,900,['n'],1,right,['2'],5,247,[-0.08400312],82,47,medium,minus,dotcolour,alfa,,,124,18,M,R,
671,41,41,15,5,53,27,483,['c'],1,left,['1'],6,659,[0.15637943],85,53,easy,minus,dotcolour,alfa,,,124,18,M,R,
672,42,0,16,5,36,44,684,['n'],1,right,['2'],5,756,[0.15021919],17,44,hard,minus,dotcolour,alfa,,,124,18,M,R,
673,43,1,16,5,53,27,566,['c'],1,left,['2'],5,919,[0.17894904],84,53,easy,minus,dotcolour,alfa,,,124,18,M,R,
674,44,2,16,5,47,33,517,['c'],1,left,['2'],5,751,[0.22180631],91,47,medium,minus,dotcolour,alfa,,,124,18,M,R,
675,45,3,16,5,27,53,767,['n'],1,right,['1'],6,1075,[-0.21922318],87,53,easy,minus,dotcolour,alfa,,,124,18,M,R,
676,46,4,16,5,53,27,717,['c'],1,left,['2'],5,461,[0.12789407],84,53,easy,minus,dotcolour,alfa,,,124,18,M,R,
677,47,5,16,5,27,53,567,['n'],1,right,['2'],5,477,[-0.11556951],82,53,easy,minus,dotcolour,alfa,,,124,18,M,R,
678,48,6,16,5,44,36,516,['c'],1,left,['3'],4,439,[0.0234727],58,44,hard,minus,dotcolour,alfa,,,124,18,M,R,
679,49,7,16,5,33,47,767,['n'],1,right,['2'],5,775,[-0.14402374],81,47,medium,minus,dotcolour,alfa,,,124,18,M,R,
680,50,8,16,5,27,53,566,['n'],1,right,['1'],6,251,[-0.07810835],80,53,easy,minus,dotcolour,alfa,,,124,18,M,R,
681,51,9,16,5,33,47,666,['c'],0,right,['8'],3,1199,[-0.07101894],36,47,medium,minus,dotcolour,alfa,,,124,18,M,R,
682,52,10,16,5,36,44,534,['n'],1,right,['2'],5,1091,[0.03025582],44,44,hard,minus,dotcolour,alfa,,,124,18,M,R,
683,53,11,16,5,53,27,667,['c'],1,left,['2'],5,374,[0.19877931],95,53,easy,minus,dotcolour,alfa,,,124,18,M,R,
684,54,12,16,5,27,53,533,['n'],1,right,['2'],5,602,[-0.10464104],77,53,easy,minus,dotcolour,alfa,,,124,18,M,R,
685,55,13,16,5,44,36,767,['c'],1,left,['8'],3,860,[0.02767232],57,44,hard,minus,dotcolour,alfa,,,124,18,M,R,
686,56,14,16,5,33,47,533,['n'],1,right,['3'],4,1622,[-0.0389395],57,47,medium,minus,dotcolour,alfa,,,124,18,M,R,
687,57,15,16,5,33,47,517,['n'],1,right,['3'],4,1273,[-0.14748034],76,47,medium,minus,dotcolour,alfa,,,124,18,M,R,
688,58,16,16,5,27,53,550,['n'],1,right,['2'],5,1498,[-0.43462452],96,53,easy,minus,dotcolour,alfa,,,124,18,M,R,
689,59,17,16,5,36,44,617,['c'],0,right,['3'],4,461,[0.08220275],75,44,hard,minus,dotcolour,alfa,,,124,18,M,R,
690,60,18,16,5,44,36,534,['c'],1,left,['2'],5,342,[0.0309542],62,44,hard,minus,dotcolour,alfa,,,124,18,M,R,
691,61,19,16,5,47,33,583,['n'],0,left,['2'],5,587,[-0.01692905],55,47,medium,minus,dotcolour,alfa,,,124,18,M,R,
692,62,20,16,5,47,33,451,['n'],0,left,['9'],2,762,[0.19877216],11,47,medium,minus,dotcolour,alfa,,,124,18,M,R,
693,63,21,16,5,53,27,567,['c'],1,left,['1'],6,206,[0.08148817],83,53,easy,minus,dotcolour,alfa,,,124,18,M,R,
694,64,22,16,5,47,33,716,['c'],1,left,['2'],5,434,[0.11076403],82,47,medium,minus,dotcolour,alfa,,,124,18,M,R,
695,65,23,16,5,44,36,499,['c'],1,left,['2'],5,518,[0.11416494],81,44,hard,minus,dotcolour,alfa,,,124,18,M,R,
696,66,24,16,5,44,36,500,['c'],1,left,['2'],5,735,[0.13865277],81,44,hard,minus,dotcolour,alfa,,,124,18,M,R,
697,67,25,16,5,44,36,517,['c'],1,left,['2'],5,197,[0.08257409],84,44,hard,minus,dotcolour,alfa,,,124,18,M,R,
698,68,26,16,5,27,53,633,['n'],1,right,['2'],5,206,[-0.10247258],88,53,easy,minus,dotcolour,alfa,,,124,18,M,R,
699,69,27,16,5,36,44,1318,['c'],0,right,['3'],4,426,[0.09520219],79,44,hard,minus,dotcolour,alfa,,,124,18,M,R,
700,70,28,16,5,36,44,650,['n'],1,right,['2'],5,304,[-0.1553743],93,44,hard,minus,dotcolour,alfa,,,124,18,M,R,
701,71,29,16,5,47,33,600,['c'],1,left,['2'],5,261,[0.1045044],86,47,medium,minus,dotcolour,alfa,,,124,18,M,R,
702,72,30,16,5,47,33,484,['c'],1,left,['3'],4,208,[0.08643659],85,47,medium,minus,dotcolour,alfa,,,124,18,M,R,
703,73,31,16,5,53,27,552,['c'],1,left,['1'],6,307,[0.13866017],90,53,easy,minus,dotcolour,alfa,,,124,18,M,R,
704,74,32,16,5,47,33,683,['c'],1,left,['2'],5,1141,[0.06813403],64,47,medium,minus,dotcolour,alfa,,,124,18,M,R,
705,75,33,16,5,33,47,635,['n'],1,right,['2'],5,1366,[-0.25394455],88,47,medium,minus,dotcolour,alfa,,,124,18,M,R,
706,76,34,16,5,53,27,533,['c'],1,left,['1'],6,243,[0.04024806],68,53,easy,minus,dotcolour,alfa,,,124,18,M,R,
707,77,35,16,5,33,47,600,['n'],1,right,['2'],5,330,[-0.10038452],83,47,medium,minus,dotcolour,alfa,,,124,18,M,R,
708,78,36,16,5,27,53,567,['c'],0,right,['0'],1,1224,[0.02004711],54,53,easy,minus,dotcolour,alfa,,,124,18,M,R,
709,79,37,16,5,36,44,966,['n'],1,right,['1'],6,409,[-0.00138621],50,44,hard,minus,dotcolour,alfa,,,124,18,M,R,
710,80,38,16,5,36,44,899,['c'],0,right,['3'],4,575,[0.03005122],59,44,hard,minus,dotcolour,alfa,,,124,18,M,R,
711,81,39,16,5,53,27,617,['n'],0,left,['9'],2,983,[0.05403987],38,53,easy,minus,dotcolour,alfa,,,124,18,M,R,
712,82,40,16,5,44,36,799,['c'],1,left,['2'],5,1113,[0.18534637],83,44,hard,minus,dotcolour,alfa,,,124,18,M,R,
713,83,41,16,5,33,47,766,['n'],1,right,['2'],5,1056,[-0.11783286],74,47,medium,minus,dotcolour,alfa,,,124,18,M,R,
714,84,0,17,5,53,27,617,['c'],1,left,['1'],6,365,[0.18853644],94,53,easy,minus,dotcolour,alfa,,,124,18,M,R,
715,85,1,17,5,44,36,1066,['c'],1,left,['2'],5,245,[0.08700634],83,44,hard,minus,dotcolour,alfa,,,124,18,M,R,
716,86,2,17,5,33,47,518,['n'],1,right,['2'],5,544,[-0.06377303],69,47,medium,minus,dotcolour,alfa,,,124,18,M,R,
717,87,3,17,5,27,53,518,['n'],1,right,['2'],5,302,[-0.1082254],85,53,easy,minus,dotcolour,alfa,,,124,18,M,R,
718,88,4,17,5,36,44,468,['n'],1,right,['3'],4,1522,[-0.30165705],90,44,hard,minus,dotcolour,alfa,,,124,18,M,R,
719,89,5,17,5,33,47,549,['n'],1,right,['2'],5,655,[-0.13329727],81,47,medium,minus,dotcolour,alfa,,,124,18,M,R,
720,90,6,17,5,33,47,401,['n'],1,right,['2'],5,702,[-0.15296551],84,47,medium,minus,dotcolour,alfa,,,124,18,M,R,
721,91,7,17,5,27,53,517,['n'],1,right,['2'],5,3622,[-0.55085137],93,53,easy,minus,dotcolour,alfa,,,124,18,M,R,
722,92,8,17,5,44,36,567,['c'],1,left,['2'],5,263,[0.08100737],81,44,hard,minus,dotcolour,alfa,,,124,18,M,R,
723,93,9,17,5,27,53,466,['n'],1,right,['2'],5,682,[-0.2005482],90,53,easy,minus,dotcolour,alfa,,,124,18,M,R,
724,94,10,17,5,53,27,784,['c'],1,left,['1'],6,185,[0.13057956],94,53,easy,minus,dotcolour,alfa,,,124,18,M,R,
725,95,11,17,5,33,47,534,['n'],1,right,['1'],6,942,[-0.18881009],85,47,medium,minus,dotcolour,alfa,,,124,18,M,R,
726,96,12,17,5,47,33,916,['c'],1,left,['3'],4,357,[0.08872644],79,47,medium,minus,dotcolour,alfa,,,124,18,M,R,
727,97,13,17,5,44,36,500,['c'],1,left,['2'],5,1027,[0.16497478],81,44,hard,minus,dotcolour,alfa,,,124,18,M,R,
728,98,14,17,5,27,53,617,['n'],1,right,['2'],5,1251,[-0.1713578],80,53,easy,minus,dotcolour,alfa,,,124,18,M,R,
729,99,15,17,5,44,36,700,['c'],1,left,['2'],5,742,[0.18160601],87,44,hard,minus,dotcolour,alfa,,,124,18,M,R,
730,100,16,17,5,44,36,733,['c'],1,left,['3'],4,363,[0.13163571],88,44,hard,minus,dotcolour,alfa,,,124,18,M,R,
731,101,17,17,5,36,44,584,['n'],1,right,['3'],4,527,[0.04811806],36,44,hard,minus,dotcolour,alfa,,,124,18,M,R,
732,102,18,17,5,36,44,850,['n'],1,right,['2'],5,505,[-0.01783688],56,44,hard,minus,dotcolour,alfa,,,124,18,M,R,
733,103,19,17,5,53,27,650,['c'],1,left,['2'],5,916,[0.36705859],97,53,easy,minus,dotcolour,alfa,,,124,18,M,R,
734,104,20,17,5,33,47,717,['n'],1,right,['2'],5,555,[-0.15696194],87,47,medium,minus,dotcolour,alfa,,,124,18,M,R,
735,105,21,17,5,53,27,767,['n'],0,left,['9'],2,1664,[0.11325498],31,53,easy,minus,dotcolour,alfa,,,124,18,M,R,
736,106,22,17,5,27,53,600,['n'],1,right,['3'],4,3782,[-0.67247738],96,53,easy,minus,dotcolour,alfa,,,124,18,M,R,
737,107,23,17,5,47,33,866,['n'],0,left,['8'],3,1732,[0.01037317],48,47,medium,minus,dotcolour,alfa,,,124,18,M,R,
738,108,24,17,5,53,27,567,['c'],1,left,['2'],5,361,[0.02148084],58,53,easy,minus,dotcolour,alfa,,,124,18,M,R,
739,109,25,17,5,27,53,766,['n'],1,right,['1'],6,1125,[-0.06828421],64,53,easy,minus,dotcolour,alfa,,,124,18,M,R,
740,110,26,17,5,47,33,799,['c'],1,left,['3'],4,865,[0.05144529],62,47,medium,minus,dotcolour,alfa,,,124,18,M,R,
741,111,27,17,5,36,44,767,['n'],1,right,['3'],4,497,[-0.17549166],90,44,hard,minus,dotcolour,alfa,,,124,18,M,R,
742,112,28,17,5,47,33,717,['c'],1,left,['2'],5,4417,[0.49306206],89,47,medium,minus,dotcolour,alfa,,,124,18,M,R,
743,113,29,17,5,36,44,917,['n'],1,right,['2'],5,300,[0.01139295],45,44,hard,minus,dotcolour,alfa,,,124,18,M,R,
744,114,30,17,5,47,33,900,['c'],1,left,['2'],5,781,[0.08639821],71,47,medium,minus,dotcolour,alfa,,,124,18,M,R,
745,115,31,17,5,44,36,633,['c'],1,left,['3'],4,1222,[0.01456768],53,44,hard,minus,dotcolour,alfa,,,124,18,M,R,
746,116,32,17,5,33,47,633,['n'],1,right,['2'],5,293,[-0.11846073],88,47,medium,minus,dotcolour,alfa,,,124,18,M,R,
747,117,33,17,5,47,33,701,['c'],1,left,['8'],3,918,[0.19835529],87,47,medium,minus,dotcolour,alfa,,,124,18,M,R,
748,118,34,17,5,36,44,917,['n'],1,right,['2'],5,358,[-0.08051676],77,44,hard,minus,dotcolour,alfa,,,124,18,M,R,
749,119,35,17,5,27,53,501,['n'],1,right,['2'],5,261,[-0.0624779],75,53,easy,minus,dotcolour,alfa,,,124,18,M,R,
750,120,36,17,5,53,27,551,['c'],1,left,['2'],5,822,[0.20019856],88,53,easy,minus,dotcolour,alfa,,,124,18,M,R,
751,121,37,17,5,44,36,718,['c'],1,left,['2'],5,769,[0.07759462],69,44,hard,minus,dotcolour,alfa,,,124,18,M,R,
752,122,38,17,5,47,33,401,['c'],1,left,['9'],2,627,[0.07310459],70,47,medium,minus,dotcolour,alfa,,,124,18,M,R,
753,123,39,17,5,33,47,617,['n'],1,right,['8'],3,570,[-0.18421728],90,47,medium,minus,dotcolour,alfa,,,124,18,M,R,
754,124,40,17,5,53,27,834,['c'],1,left,['2'],5,474,[0.31915213],98,53,easy,minus,dotcolour,alfa,,,124,18,M,R,
755,125,41,17,5,36,44,717,['n'],1,right,['3'],4,468,[-0.04718651],65,44,hard,minus,dotcolour,alfa,,,124,18,M,R,
,,,,,,,,,,,,,,,,,,,,,1,"in het begin in de instructies stond een spelfout ik denk dat er om in plaats v
an tom moest staan",124,18,M,R,
,,,,,,,,,,,,,,,,,,,,,2,['d'],124,18,M,R,
,,,,,,,,,,,,,,,,,,,,,3,['h'],124,18,M,R,
,,,,,,,,,,,,,,,,,,,,,5,['5'],124,18,M,R,
