trial,withinphasetrial,withinblocktrial,block,phase,dotsLeft,dotsRight,rt,resp,cor,cresp,conf_press,cj,RTconf,ev,fb,diff,difflevel,condition,task,manip,questionID,questionResp,sub,age,gender,handedness,
0,0,0,0,0,44,36,5084,['n'],0,left,['8'],3,2270,[0.02289405],60,44,hard,plus,dotcolour,beta,,,60,19,V,R,
1,1,1,0,0,33,47,1899,['n'],1,right,['8'],3,1336,[-0.20181632],98,47,medium,plus,dotcolour,beta,,,60,19,V,R,
2,2,2,0,0,47,33,2350,['n'],0,left,['9'],2,1117,[0.00642672],70,47,medium,plus,dotcolour,beta,,,60,19,V,R,
3,3,3,0,0,47,33,1966,['c'],1,left,['2'],5,2450,[0.30915172],99,47,medium,plus,dotcolour,beta,,,60,19,V,R,
4,4,4,0,0,36,44,2117,['c'],0,right,['2'],5,1156,[-0.01778059],65,44,hard,plus,dotcolour,beta,,,60,19,V,R,
5,5,5,0,0,27,53,4016,['n'],1,right,['9'],2,622,[-0.09276414],97,53,easy,plus,dotcolour,beta,,,60,19,V,R,
6,6,6,0,0,33,47,1217,['c'],0,right,['3'],4,941,[0.08421663],93,47,medium,plus,dotcolour,beta,,,60,19,V,R,
7,7,7,0,0,47,33,3133,['c'],1,left,['8'],3,875,[0.16071221],98,47,medium,plus,dotcolour,beta,,,60,19,V,R,
8,8,8,0,0,44,36,2867,['c'],1,left,['3'],4,887,[0.24449859],100,44,hard,plus,dotcolour,beta,,,60,19,V,R,
9,9,9,0,0,33,47,3516,['c'],0,right,['3'],4,624,[0.03216438],88,47,medium,plus,dotcolour,beta,,,60,19,V,R,
10,10,10,0,0,36,44,1700,['n'],1,right,['8'],3,1011,[0.01028512],69,44,hard,plus,dotcolour,beta,,,60,19,V,R,
11,11,11,0,0,27,53,684,['n'],1,right,['0'],1,457,[-0.1263919],99,53,easy,plus,dotcolour,beta,,,60,19,V,R,
12,12,12,0,0,33,47,1949,['c'],0,right,['1'],6,538,[0.03594661],90,47,medium,plus,dotcolour,beta,,,60,19,V,R,
13,13,13,0,0,47,33,1450,['c'],1,left,['3'],4,467,[0.12185009],99,47,medium,plus,dotcolour,beta,,,60,19,V,R,
14,14,14,0,0,33,47,800,['n'],1,right,['0'],1,482,[-0.14371002],99,47,medium,plus,dotcolour,beta,,,60,19,V,R,
15,15,15,0,0,44,36,1418,['n'],0,left,['8'],3,407,[-0.03692845],93,44,hard,plus,dotcolour,beta,,,60,19,V,R,
16,16,16,0,0,53,27,1000,['c'],1,left,['1'],6,368,[0.14796159],100,53,easy,plus,dotcolour,beta,,,60,19,V,R,
17,17,17,0,0,53,27,1017,['c'],1,left,['1'],6,274,[0.1299049],100,53,easy,plus,dotcolour,beta,,,60,19,V,R,
18,18,18,0,0,53,27,1116,['c'],1,left,['1'],6,243,[0.1459783],100,53,easy,plus,dotcolour,beta,,,60,19,V,R,
19,19,19,0,0,27,53,767,['n'],1,right,['0'],1,324,[-0.06542126],98,53,easy,plus,dotcolour,beta,,,60,19,V,R,
20,20,20,0,0,33,47,3184,['n'],1,right,['1'],6,305,[-0.13352851],100,47,medium,plus,dotcolour,beta,,,60,19,V,R,
21,21,21,0,0,36,44,1884,['c'],0,right,['1'],6,378,[0.02567754],92,44,hard,plus,dotcolour,beta,,,60,19,V,R,
22,22,22,0,0,53,27,934,['c'],1,left,['1'],6,159,[0.09327689],100,53,easy,plus,dotcolour,beta,,,60,19,V,R,
23,23,23,0,0,27,53,850,['n'],1,right,['1'],6,176,[-0.0610356],99,53,easy,plus,dotcolour,beta,,,60,19,V,R,
24,24,24,0,0,27,53,817,['n'],1,right,['1'],6,193,[-0.04305896],98,53,easy,plus,dotcolour,beta,,,60,19,V,R,
25,25,25,0,0,36,44,700,['n'],1,right,['1'],6,158,[-0.03237687],98,44,hard,plus,dotcolour,beta,,,60,19,V,R,
26,26,26,0,0,53,27,718,['c'],1,left,['1'],6,173,[0.11401394],100,53,easy,plus,dotcolour,beta,,,60,19,V,R,
27,27,27,0,0,47,33,800,['c'],1,left,['1'],6,287,[0.15589921],100,47,medium,plus,dotcolour,beta,,,60,19,V,R,
28,28,28,0,0,36,44,683,['n'],1,right,['1'],6,194,[-0.03129187],97,44,hard,plus,dotcolour,beta,,,60,19,V,R,
29,29,29,0,0,36,44,633,['n'],1,right,['1'],6,193,[-0.14300463],100,44,hard,plus,dotcolour,beta,,,60,19,V,R,
30,30,30,0,0,33,47,767,['n'],1,right,['1'],6,236,[-0.09353194],100,47,medium,plus,dotcolour,beta,,,60,19,V,R,
31,31,31,0,0,44,36,684,['c'],1,left,['1'],6,184,[0.13682898],100,44,hard,plus,dotcolour,beta,,,60,19,V,R,
32,32,32,0,0,53,27,865,['c'],1,left,['1'],6,184,[0.12417779],100,53,easy,plus,dotcolour,beta,,,60,19,V,R,
33,33,33,0,0,36,44,784,['n'],1,right,['1'],6,187,[-0.09091142],100,44,hard,plus,dotcolour,beta,,,60,19,V,R,
34,34,34,0,0,44,36,1083,['c'],1,left,['1'],6,105,[0.11330201],100,44,hard,plus,dotcolour,beta,,,60,19,V,R,
35,35,35,0,0,44,36,883,['n'],0,left,['1'],6,220,[-0.00747261],92,44,hard,plus,dotcolour,beta,,,60,19,V,R,
36,36,36,0,0,47,33,1033,['n'],0,left,['2'],5,299,[-0.06703089],98,47,medium,plus,dotcolour,beta,,,60,19,V,R,
37,37,37,0,0,27,53,868,['n'],1,right,['1'],6,429,[-0.22844033],100,53,easy,plus,dotcolour,beta,,,60,19,V,R,
38,38,38,0,0,47,33,901,['c'],1,left,['1'],6,233,[0.10501674],100,47,medium,plus,dotcolour,beta,,,60,19,V,R,
39,39,39,0,0,44,36,1167,['n'],0,left,['2'],5,891,[-0.21400099],99,44,hard,plus,dotcolour,beta,,,60,19,V,R,
40,40,40,0,0,53,27,2100,['c'],1,left,['2'],5,228,[0.11564861],100,53,easy,plus,dotcolour,beta,,,60,19,V,R,
41,41,41,0,0,27,53,700,['n'],1,right,['1'],6,480,[-0.20443805],100,53,easy,plus,dotcolour,beta,,,60,19,V,R,
42,42,0,1,0,36,44,2467,['n'],1,right,['1'],6,203,[-0.03756597],98,44,hard,plus,dotcolour,beta,,,60,19,V,R,
43,43,1,1,0,27,53,834,['n'],1,right,['2'],5,323,[-0.08401192],99,53,easy,plus,dotcolour,beta,,,60,19,V,R,
44,44,2,1,0,44,36,2267,['c'],1,left,['3'],4,917,[0.22874973],100,44,hard,plus,dotcolour,beta,,,60,19,V,R,
45,45,3,1,0,47,33,1333,['c'],1,left,['3'],4,267,[0.16534731],100,47,medium,plus,dotcolour,beta,,,60,19,V,R,
46,46,4,1,0,36,44,2068,['c'],0,right,['3'],4,359,[0.08259908],98,44,hard,plus,dotcolour,beta,,,60,19,V,R,
47,47,5,1,0,47,33,1233,['c'],1,left,['3'],4,248,[0.08911295],99,47,medium,plus,dotcolour,beta,,,60,19,V,R,
48,48,6,1,0,33,47,1884,['c'],0,right,['8'],3,300,[0.0986556],99,47,medium,plus,dotcolour,beta,,,60,19,V,R,
49,49,7,1,0,47,33,1034,['c'],1,left,['8'],3,233,[0.02044804],94,47,medium,plus,dotcolour,beta,,,60,19,V,R,
50,50,8,1,0,36,44,2567,['c'],0,right,['8'],3,650,[0.08500856],96,44,hard,plus,dotcolour,beta,,,60,19,V,R,
51,51,9,1,0,44,36,1733,['c'],1,left,['8'],3,1436,[0.04560141],82,44,hard,plus,dotcolour,beta,,,60,19,V,R,
52,52,10,1,0,47,33,2750,['c'],1,left,['8'],3,637,[0.22135619],100,47,medium,plus,dotcolour,beta,,,60,19,V,R,
53,53,11,1,0,27,53,767,['n'],1,right,['3'],4,639,[-0.23036793],100,53,easy,plus,dotcolour,beta,,,60,19,V,R,
54,54,12,1,0,44,36,884,['c'],1,left,['8'],3,259,[0.08535396],99,44,hard,plus,dotcolour,beta,,,60,19,V,R,
55,55,13,1,0,27,53,767,['n'],1,right,['8'],3,354,[-0.15105353],100,53,easy,plus,dotcolour,beta,,,60,19,V,R,
56,56,14,1,0,27,53,800,['n'],1,right,['1'],6,349,[-0.12386298],100,53,easy,plus,dotcolour,beta,,,60,19,V,R,
57,57,15,1,0,27,53,700,['n'],1,right,['1'],6,205,[-0.09370389],100,53,easy,plus,dotcolour,beta,,,60,19,V,R,
58,58,16,1,0,33,47,749,['n'],1,right,['1'],6,184,[-0.02051813],96,47,medium,plus,dotcolour,beta,,,60,19,V,R,
59,59,17,1,0,53,27,650,['c'],1,left,['1'],6,248,[0.12567357],100,53,easy,plus,dotcolour,beta,,,60,19,V,R,
60,60,18,1,0,53,27,1117,['c'],1,left,['1'],6,139,[0.12284568],100,53,easy,plus,dotcolour,beta,,,60,19,V,R,
61,61,19,1,0,33,47,900,['n'],1,right,['1'],6,146,[-0.09629835],100,47,medium,plus,dotcolour,beta,,,60,19,V,R,
62,62,20,1,0,44,36,833,['c'],1,left,['1'],6,180,[0.10957337],100,44,hard,plus,dotcolour,beta,,,60,19,V,R,
63,63,21,1,0,53,27,767,['c'],1,left,['1'],6,496,[0.13934062],99,53,easy,plus,dotcolour,beta,,,60,19,V,R,
64,64,22,1,0,33,47,700,['n'],1,right,['1'],6,249,[-0.14587076],100,47,medium,plus,dotcolour,beta,,,60,19,V,R,
65,65,23,1,0,36,44,1083,['n'],1,right,['1'],6,173,[-0.07654497],100,44,hard,plus,dotcolour,beta,,,60,19,V,R,
66,66,24,1,0,47,33,1084,['n'],0,left,['1'],6,164,[-0.08903973],100,47,medium,plus,dotcolour,beta,,,60,19,V,R,
67,67,25,1,0,44,36,1133,['n'],0,left,['1'],6,177,[-0.05907364],99,44,hard,plus,dotcolour,beta,,,60,19,V,R,
68,68,26,1,0,47,33,1217,['c'],1,left,['1'],6,466,[0.09075958],98,47,medium,plus,dotcolour,beta,,,60,19,V,R,
69,69,27,1,0,27,53,600,['n'],1,right,['2'],5,561,[-0.08084632],96,53,easy,plus,dotcolour,beta,,,60,19,V,R,
70,70,28,1,0,36,44,1484,['c'],0,right,['2'],5,217,[0.06349172],99,44,hard,plus,dotcolour,beta,,,60,19,V,R,
71,71,29,1,0,47,33,734,['n'],0,left,['2'],5,324,[-0.14809788],100,47,medium,plus,dotcolour,beta,,,60,19,V,R,
72,72,30,1,0,36,44,1500,['n'],1,right,['8'],3,188,[-0.07285166],100,44,hard,plus,dotcolour,beta,,,60,19,V,R,
73,73,31,1,0,36,44,1783,['c'],0,right,['8'],3,1143,[-0.06694363],45,44,hard,plus,dotcolour,beta,,,60,19,V,R,
74,74,32,1,0,27,53,1133,['n'],1,right,['3'],4,925,[-0.23101933],100,53,easy,plus,dotcolour,beta,,,60,19,V,R,
75,75,33,1,0,53,27,1050,['c'],1,left,['1'],6,151,[0.11164012],100,53,easy,plus,dotcolour,beta,,,60,19,V,R,
76,76,34,1,0,44,36,1999,['c'],1,left,['1'],6,387,[0.08134362],98,44,hard,plus,dotcolour,beta,,,60,19,V,R,
77,77,35,1,0,33,47,950,['n'],1,right,['1'],6,255,[-0.1791626],100,47,medium,plus,dotcolour,beta,,,60,19,V,R,
78,78,36,1,0,53,27,1334,['c'],1,left,['1'],6,216,[0.13714837],100,53,easy,plus,dotcolour,beta,,,60,19,V,R,
79,79,37,1,0,53,27,2433,['c'],1,left,['1'],6,120,[-0.02594652],82,53,easy,plus,dotcolour,beta,,,60,19,V,R,
80,80,38,1,0,44,36,1167,['c'],1,left,['2'],5,230,[0.13098328],100,44,hard,plus,dotcolour,beta,,,60,19,V,R,
81,81,39,1,0,53,27,833,['c'],1,left,['1'],6,157,[0.0764766],100,53,easy,plus,dotcolour,beta,,,60,19,V,R,
82,82,40,1,0,33,47,666,['n'],1,right,['0'],1,188,[-0.05486452],99,47,medium,plus,dotcolour,beta,,,60,19,V,R,
83,83,41,1,0,33,47,2550,['c'],0,right,['1'],6,384,[0.05019878],96,47,medium,plus,dotcolour,beta,,,60,19,V,R,
84,84,0,2,0,33,47,1967,['n'],1,right,['1'],6,475,[-0.12157529],99,47,medium,plus,dotcolour,beta,,,60,19,V,R,
85,85,1,2,0,27,53,750,['n'],1,right,['1'],6,299,[-0.06112004],98,53,easy,plus,dotcolour,beta,,,60,19,V,R,
86,86,2,2,0,44,36,1317,['c'],1,left,['1'],6,140,[0.06480931],100,44,hard,plus,dotcolour,beta,,,60,19,V,R,
87,87,3,2,0,44,36,1234,['c'],1,left,['1'],6,182,[0.055433],99,44,hard,plus,dotcolour,beta,,,60,19,V,R,
88,88,4,2,0,47,33,935,['n'],0,left,['2'],5,939,[-0.14960618],98,47,medium,plus,dotcolour,beta,,,60,19,V,R,
89,89,5,2,0,53,27,767,['c'],1,left,['1'],6,120,[0.11565262],100,53,easy,plus,dotcolour,beta,,,60,19,V,R,
90,90,6,2,0,27,53,733,['c'],0,right,['0'],1,2535,[-0.14490547],27,53,easy,plus,dotcolour,beta,,,60,19,V,R,
91,91,7,2,0,36,44,1883,['n'],1,right,['1'],6,271,[-0.08123773],99,44,hard,plus,dotcolour,beta,,,60,19,V,R,
92,92,8,2,0,36,44,1283,['n'],1,right,['1'],6,970,[-0.2012933],99,44,hard,plus,dotcolour,beta,,,60,19,V,R,
93,93,9,2,0,33,47,667,['n'],1,right,['1'],6,194,[-0.18163032],100,47,medium,plus,dotcolour,beta,,,60,19,V,R,
94,94,10,2,0,47,33,1316,['n'],0,left,['1'],6,135,[-0.06913532],100,47,medium,plus,dotcolour,beta,,,60,19,V,R,
95,95,11,2,0,44,36,1200,['c'],1,left,['1'],6,162,[0.03947616],99,44,hard,plus,dotcolour,beta,,,60,19,V,R,
96,96,12,2,0,47,33,1134,['c'],1,left,['1'],6,80,[0.09232217],100,47,medium,plus,dotcolour,beta,,,60,19,V,R,
97,97,13,2,0,53,27,766,['c'],1,left,['1'],6,256,[0.13092075],100,53,easy,plus,dotcolour,beta,,,60,19,V,R,
98,98,14,2,0,53,27,934,['c'],1,left,['1'],6,177,[0.11640188],100,53,easy,plus,dotcolour,beta,,,60,19,V,R,
99,99,15,2,0,27,53,834,['n'],1,right,['1'],6,178,[-0.13523276],100,53,easy,plus,dotcolour,beta,,,60,19,V,R,
100,100,16,2,0,36,44,701,['n'],1,right,['1'],6,96,[-0.10339095],100,44,hard,plus,dotcolour,beta,,,60,19,V,R,
101,101,17,2,0,36,44,1817,['c'],0,right,['1'],6,140,[-0.02404325],82,44,hard,plus,dotcolour,beta,,,60,19,V,R,
102,102,18,2,0,27,53,634,['n'],1,right,['1'],6,158,[-0.09316742],100,53,easy,plus,dotcolour,beta,,,60,19,V,R,
103,103,19,2,0,44,36,1066,['c'],1,left,['1'],6,38,[0.08808619],100,44,hard,plus,dotcolour,beta,,,60,19,V,R,
104,104,20,2,0,47,33,1100,['c'],1,left,['1'],6,91,[0.01774337],99,47,medium,plus,dotcolour,beta,,,60,19,V,R,
105,105,21,2,0,33,47,667,['n'],1,right,['1'],6,110,[-0.07520537],100,47,medium,plus,dotcolour,beta,,,60,19,V,R,
106,106,22,2,0,44,36,1034,['c'],1,left,['1'],6,48,[0.08542564],100,44,hard,plus,dotcolour,beta,,,60,19,V,R,
107,107,23,2,0,47,33,866,['c'],1,left,['1'],6,93,[0.0326393],99,47,medium,plus,dotcolour,beta,,,60,19,V,R,
108,108,24,2,0,36,44,1483,['n'],1,right,['3'],4,416,[-0.14870721],100,44,hard,plus,dotcolour,beta,,,60,19,V,R,
109,109,25,2,0,44,36,1217,['c'],1,left,['2'],5,303,[0.17707222],100,44,hard,plus,dotcolour,beta,,,60,19,V,R,
110,110,26,2,0,27,53,733,['n'],1,right,['1'],6,159,[-0.03686857],98,53,easy,plus,dotcolour,beta,,,60,19,V,R,
111,111,27,2,0,47,33,1483,['c'],1,left,['1'],6,95,[0.10337624],100,47,medium,plus,dotcolour,beta,,,60,19,V,R,
112,112,28,2,0,33,47,1434,['n'],1,right,['3'],4,1227,[-0.23921927],99,47,medium,plus,dotcolour,beta,,,60,19,V,R,
113,113,29,2,0,53,27,950,['c'],1,left,['1'],6,213,[0.06192886],99,53,easy,plus,dotcolour,beta,,,60,19,V,R,
114,114,30,2,0,33,47,600,['n'],1,right,['2'],5,181,[-0.03715312],98,47,medium,plus,dotcolour,beta,,,60,19,V,R,
115,115,31,2,0,33,47,1100,['n'],1,right,['2'],5,339,[-0.12590122],100,47,medium,plus,dotcolour,beta,,,60,19,V,R,
116,116,32,2,0,36,44,1183,['n'],1,right,['1'],6,263,[-0.15332853],100,44,hard,plus,dotcolour,beta,,,60,19,V,R,
117,117,33,2,0,44,36,1199,['c'],1,left,['2'],5,167,[0.12058018],100,44,hard,plus,dotcolour,beta,,,60,19,V,R,
118,118,34,2,0,33,47,800,['n'],1,right,['2'],5,137,[-0.10036965],100,47,medium,plus,dotcolour,beta,,,60,19,V,R,
119,119,35,2,0,53,27,850,['c'],1,left,['2'],5,227,[0.09098563],100,53,easy,plus,dotcolour,beta,,,60,19,V,R,
120,120,36,2,0,36,44,717,['n'],1,right,['1'],6,223,[-0.04622128],98,44,hard,plus,dotcolour,beta,,,60,19,V,R,
121,121,37,2,0,53,27,967,['c'],1,left,['3'],4,464,[0.14647351],100,53,easy,plus,dotcolour,beta,,,60,19,V,R,
122,122,38,2,0,47,33,1034,['n'],0,left,['1'],6,285,[-0.02181005],93,47,medium,plus,dotcolour,beta,,,60,19,V,R,
123,123,39,2,0,27,53,767,['n'],1,right,['2'],5,316,[-0.02314166],93,53,easy,plus,dotcolour,beta,,,60,19,V,R,
124,124,40,2,0,53,27,650,['c'],1,left,['2'],5,135,[0.09297048],100,53,easy,plus,dotcolour,beta,,,60,19,V,R,
125,125,41,2,0,27,53,767,['n'],1,right,['1'],6,541,[-0.0930243],97,53,easy,plus,dotcolour,beta,,,60,19,V,R,
126,0,0,3,1,36,44,883,['n'],1,right,['1'],6,217,[-0.07014091],64,44,hard,minus,dotcolour,beta,,,60,19,V,R,
127,1,1,3,1,33,47,850,['n'],1,right,['1'],6,136,[-0.06967608],67,47,medium,minus,dotcolour,beta,,,60,19,V,R,
128,2,2,3,1,47,33,884,['c'],1,left,['1'],6,233,[-0.00646635],9,47,medium,minus,dotcolour,beta,,,60,19,V,R,
129,3,3,3,1,36,44,1099,['n'],1,right,['8'],3,1757,[-0.19960787],88,44,hard,minus,dotcolour,beta,,,60,19,V,R,
130,4,4,3,1,44,36,1150,['c'],1,left,['1'],6,601,[0.1528046],91,44,hard,minus,dotcolour,beta,,,60,19,V,R,
131,5,5,3,1,36,44,1800,['c'],0,right,['3'],4,1091,[0.03425246],41,44,hard,minus,dotcolour,beta,,,60,19,V,R,
132,6,6,3,1,27,53,800,['n'],1,right,['1'],6,664,[-0.20086308],96,53,easy,minus,dotcolour,beta,,,60,19,V,R,
133,7,7,3,1,27,53,666,['n'],1,right,['1'],6,172,[-0.05174137],46,53,easy,minus,dotcolour,beta,,,60,19,V,R,
134,8,8,3,1,27,53,1033,['n'],1,right,['1'],6,285,[-0.08122759],70,53,easy,minus,dotcolour,beta,,,60,19,V,R,
135,9,9,3,1,33,47,1166,['n'],1,right,['1'],6,205,[-0.12435017],94,47,medium,minus,dotcolour,beta,,,60,19,V,R,
136,10,10,3,1,47,33,1784,['c'],1,left,['8'],3,590,[0.17207162],94,47,medium,minus,dotcolour,beta,,,60,19,V,R,
137,11,11,3,1,53,27,1234,['c'],1,left,['8'],3,463,[0.16896261],95,53,easy,minus,dotcolour,beta,,,60,19,V,R,
138,12,12,3,1,53,27,1184,['c'],1,left,['1'],6,174,[0.07096382],66,53,easy,minus,dotcolour,beta,,,60,19,V,R,
139,13,13,3,1,53,27,1699,['c'],1,left,['1'],6,172,[0.09559097],85,53,easy,minus,dotcolour,beta,,,60,19,V,R,
140,14,14,3,1,44,36,1883,['c'],1,left,['3'],4,539,[0.30418061],100,44,hard,minus,dotcolour,beta,,,60,19,V,R,
141,15,15,3,1,36,44,2285,['n'],1,right,['8'],3,1195,[-0.11829382],74,44,hard,minus,dotcolour,beta,,,60,19,V,R,
142,16,16,3,1,27,53,950,['n'],1,right,['1'],6,134,[-0.13061617],98,53,easy,minus,dotcolour,beta,,,60,19,V,R,
143,17,17,3,1,33,47,616,['n'],1,right,['1'],6,90,[-0.0966305],92,47,medium,minus,dotcolour,beta,,,60,19,V,R,
144,18,18,3,1,44,36,1067,['c'],1,left,['1'],6,220,[0.04681639],42,44,hard,minus,dotcolour,beta,,,60,19,V,R,
145,19,19,3,1,47,33,1434,['c'],1,left,['3'],4,868,[0.26156287],98,47,medium,minus,dotcolour,beta,,,60,19,V,R,
146,20,20,3,1,53,27,1034,['c'],1,left,['1'],6,169,[0.12266092],95,53,easy,minus,dotcolour,beta,,,60,19,V,R,
147,21,21,3,1,27,53,717,['n'],1,right,['1'],6,174,[-0.16979462],99,53,easy,minus,dotcolour,beta,,,60,19,V,R,
148,22,22,3,1,53,27,833,['c'],1,left,['2'],5,1199,[0.00973581],32,53,easy,minus,dotcolour,beta,,,60,19,V,R,
149,23,23,3,1,47,33,1684,['c'],1,left,['2'],5,421,[0.09295887],74,47,medium,minus,dotcolour,beta,,,60,19,V,R,
150,24,24,3,1,36,44,1284,['n'],1,right,['2'],5,113,[-0.09441365],89,44,hard,minus,dotcolour,beta,,,60,19,V,R,
151,25,25,3,1,33,47,717,['n'],1,right,['2'],5,121,[-0.1413072],99,47,medium,minus,dotcolour,beta,,,60,19,V,R,
152,26,26,3,1,36,44,717,['n'],1,right,['2'],5,89,[-0.07010036],71,44,hard,minus,dotcolour,beta,,,60,19,V,R,
153,27,27,3,1,44,36,1017,['c'],1,left,['3'],4,639,[0.06123141],53,44,hard,minus,dotcolour,beta,,,60,19,V,R,
154,28,28,3,1,27,53,717,['n'],1,right,['2'],5,354,[-0.19289883],98,53,easy,minus,dotcolour,beta,,,60,19,V,R,
155,29,29,3,1,33,47,766,['n'],1,right,['2'],5,118,[-0.09279078],88,47,medium,minus,dotcolour,beta,,,60,19,V,R,
156,30,30,3,1,44,36,916,['c'],1,left,['2'],5,470,[0.20695205],98,44,hard,minus,dotcolour,beta,,,60,19,V,R,
157,31,31,3,1,33,47,668,['n'],1,right,['2'],5,186,[-0.04911409],43,47,medium,minus,dotcolour,beta,,,60,19,V,R,
158,32,32,3,1,33,47,867,['n'],1,right,['2'],5,201,[-0.08486216],76,47,medium,minus,dotcolour,beta,,,60,19,V,R,
159,33,33,3,1,47,33,550,['c'],1,left,['1'],6,245,[-0.00228047],11,47,medium,minus,dotcolour,beta,,,60,19,V,R,
160,34,34,3,1,47,33,834,['c'],1,left,['2'],5,210,[0.0779905],71,47,medium,minus,dotcolour,beta,,,60,19,V,R,
161,35,35,3,1,36,44,2551,['c'],0,right,['8'],3,261,[0.02573649],26,44,hard,minus,dotcolour,beta,,,60,19,V,R,
162,36,36,3,1,44,36,1901,['c'],1,left,['8'],3,288,[0.19153385],99,44,hard,minus,dotcolour,beta,,,60,19,V,R,
163,37,37,3,1,53,27,917,['c'],1,left,['3'],4,345,[0.08707347],72,53,easy,minus,dotcolour,beta,,,60,19,V,R,
164,38,38,3,1,27,53,734,['n'],1,right,['1'],6,191,[-0.07454155],69,53,easy,minus,dotcolour,beta,,,60,19,V,R,
165,39,39,3,1,53,27,900,['c'],1,left,['1'],6,172,[0.1268789],96,53,easy,minus,dotcolour,beta,,,60,19,V,R,
166,40,40,3,1,47,33,2000,['n'],0,left,['1'],6,126,[-0.11684244],96,47,medium,minus,dotcolour,beta,,,60,19,V,R,
167,41,41,3,1,44,36,1067,['n'],0,left,['1'],6,120,[-0.01755568],12,44,hard,minus,dotcolour,beta,,,60,19,V,R,
168,42,0,4,1,36,44,1417,['c'],0,right,['1'],6,111,[-0.01157319],3,44,hard,minus,dotcolour,beta,,,60,19,V,R,
169,43,1,4,1,44,36,1300,['c'],1,left,['2'],5,424,[0.13260193],89,44,hard,minus,dotcolour,beta,,,60,19,V,R,
170,44,2,4,1,47,33,768,['c'],1,left,['3'],4,273,[0.17819698],99,47,medium,minus,dotcolour,beta,,,60,19,V,R,
171,45,3,4,1,27,53,2067,['c'],0,right,['2'],5,149,[0.11558006],94,53,easy,minus,dotcolour,beta,,,60,19,V,R,
172,46,4,4,1,47,33,900,['c'],1,left,['1'],6,124,[0.01872383],13,47,medium,minus,dotcolour,beta,,,60,19,V,R,
173,47,5,4,1,47,33,1634,['n'],0,left,['2'],5,1207,[0.0166935],23,47,medium,minus,dotcolour,beta,,,60,19,V,R,
174,48,6,4,1,33,47,1234,['n'],1,right,['2'],5,302,[-0.07139974],63,47,medium,minus,dotcolour,beta,,,60,19,V,R,
175,49,7,4,1,47,33,800,['n'],0,left,['2'],5,107,[-0.03454518],24,47,medium,minus,dotcolour,beta,,,60,19,V,R,
176,50,8,4,1,47,33,2317,['c'],1,left,['2'],5,571,[0.18304117],95,47,medium,minus,dotcolour,beta,,,60,19,V,R,
177,51,9,4,1,53,27,983,['c'],1,left,['2'],5,215,[0.14322437],97,53,easy,minus,dotcolour,beta,,,60,19,V,R,
178,52,10,4,1,47,33,834,['c'],1,left,['2'],5,230,[0.21161879],100,47,medium,minus,dotcolour,beta,,,60,19,V,R,
179,53,11,4,1,33,47,800,['n'],1,right,['2'],5,134,[-0.08518584],81,47,medium,minus,dotcolour,beta,,,60,19,V,R,
180,54,12,4,1,33,47,567,['n'],1,right,['2'],5,59,[-0.04989771],40,47,medium,minus,dotcolour,beta,,,60,19,V,R,
181,55,13,4,1,53,27,566,['c'],1,left,['2'],5,107,[0.07321902],73,53,easy,minus,dotcolour,beta,,,60,19,V,R,
182,56,14,4,1,36,44,2200,['c'],0,right,['1'],6,312,[0.00571327],17,44,hard,minus,dotcolour,beta,,,60,19,V,R,
183,57,15,4,1,36,44,3583,['n'],1,right,['8'],3,158,[-0.14758628],98,44,hard,minus,dotcolour,beta,,,60,19,V,R,
184,58,16,4,1,44,36,1217,['c'],1,left,['3'],4,247,[0.07454086],67,44,hard,minus,dotcolour,beta,,,60,19,V,R,
185,59,17,4,1,33,47,850,['n'],1,right,['2'],5,349,[-0.11815684],87,47,medium,minus,dotcolour,beta,,,60,19,V,R,
186,60,18,4,1,44,36,1066,['c'],1,left,['3'],4,1101,[0.19895557],92,44,hard,minus,dotcolour,beta,,,60,19,V,R,
187,61,19,4,1,36,44,1800,['n'],1,right,['3'],4,522,[-0.18685275],96,44,hard,minus,dotcolour,beta,,,60,19,V,R,
188,62,20,4,1,53,27,767,['c'],1,left,['3'],4,191,[0.13209209],96,53,easy,minus,dotcolour,beta,,,60,19,V,R,
189,63,21,4,1,44,36,916,['c'],1,left,['3'],4,124,[0.11097159],94,44,hard,minus,dotcolour,beta,,,60,19,V,R,
190,64,22,4,1,53,27,917,['c'],1,left,['2'],5,131,[0.11123854],94,53,easy,minus,dotcolour,beta,,,60,19,V,R,
191,65,23,4,1,36,44,1700,['n'],1,right,['2'],5,539,[-0.0303503],35,44,hard,minus,dotcolour,beta,,,60,19,V,R,
192,66,24,4,1,27,53,650,['n'],1,right,['8'],3,1085,[-0.38193925],100,53,easy,minus,dotcolour,beta,,,60,19,V,R,
193,67,25,4,1,33,47,766,['n'],1,right,['3'],4,444,[-0.03345674],36,47,medium,minus,dotcolour,beta,,,60,19,V,R,
194,68,26,4,1,53,27,883,['c'],1,left,['2'],5,87,[0.08500701],86,53,easy,minus,dotcolour,beta,,,60,19,V,R,
195,69,27,4,1,44,36,584,['c'],1,left,['2'],5,62,[0.08108943],86,44,hard,minus,dotcolour,beta,,,60,19,V,R,
196,70,28,4,1,44,36,1567,['n'],0,left,['8'],3,150,[-0.0532378],47,44,hard,minus,dotcolour,beta,,,60,19,V,R,
197,71,29,4,1,27,53,817,['n'],1,right,['0'],1,177,[-0.04443895],38,53,easy,minus,dotcolour,beta,,,60,19,V,R,
198,72,30,4,1,27,53,1184,['n'],1,right,['1'],6,619,[-0.18565985],95,53,easy,minus,dotcolour,beta,,,60,19,V,R,
199,73,31,4,1,53,27,734,['c'],1,left,['1'],6,142,[0.11020533],93,53,easy,minus,dotcolour,beta,,,60,19,V,R,
200,74,32,4,1,27,53,633,['c'],0,right,['1'],6,96,[0.04085716],30,53,easy,minus,dotcolour,beta,,,60,19,V,R,
201,75,33,4,1,53,27,1001,['c'],1,left,['1'],6,126,[0.07947857],77,53,easy,minus,dotcolour,beta,,,60,19,V,R,
202,76,34,4,1,36,44,2617,['n'],1,right,['1'],6,561,[-0.05526319],50,44,hard,minus,dotcolour,beta,,,60,19,V,R,
203,77,35,4,1,44,36,2267,['c'],1,left,['1'],6,145,[0.08551233],80,44,hard,minus,dotcolour,beta,,,60,19,V,R,
204,78,36,4,1,47,33,550,['c'],1,left,['1'],6,78,[0.09430569],92,47,medium,minus,dotcolour,beta,,,60,19,V,R,
205,79,37,4,1,36,44,884,['n'],1,right,['1'],6,49,[-0.02566033],8,44,hard,minus,dotcolour,beta,,,60,19,V,R,
206,80,38,4,1,33,47,900,['n'],1,right,['1'],6,324,[-0.1910218],99,47,medium,minus,dotcolour,beta,,,60,19,V,R,
207,81,39,4,1,33,47,683,['n'],1,right,['1'],6,93,[-0.08015793],81,47,medium,minus,dotcolour,beta,,,60,19,V,R,
208,82,40,4,1,27,53,666,['n'],1,right,['1'],6,48,[-0.07112632],78,53,easy,minus,dotcolour,beta,,,60,19,V,R,
209,83,41,4,1,27,53,1117,['n'],1,right,['1'],6,42,[-0.08012479],90,53,easy,minus,dotcolour,beta,,,60,19,V,R,
210,84,0,5,1,44,36,1217,['c'],1,left,['1'],6,63,[0.04013305],25,44,hard,minus,dotcolour,beta,,,60,19,V,R,
211,85,1,5,1,53,27,717,['c'],1,left,['1'],6,65,[0.0807321],86,53,easy,minus,dotcolour,beta,,,60,19,V,R,
212,86,2,5,1,47,33,783,['c'],1,left,['1'],6,1385,[0.08578439],61,47,medium,minus,dotcolour,beta,,,60,19,V,R,
213,87,3,5,1,44,36,784,['c'],1,left,['1'],6,26,[0.07902174],93,44,hard,minus,dotcolour,beta,,,60,19,V,R,
214,88,4,5,1,44,36,750,['c'],1,left,['1'],6,148,[0.14132143],98,44,hard,minus,dotcolour,beta,,,60,19,V,R,
215,89,5,5,1,53,27,550,['c'],1,left,['1'],6,91,[0.05518139],49,53,easy,minus,dotcolour,beta,,,60,19,V,R,
216,90,6,5,1,27,53,883,['n'],1,right,['1'],6,188,[-0.17051166],99,53,easy,minus,dotcolour,beta,,,60,19,V,R,
217,91,7,5,1,44,36,1301,['c'],1,left,['1'],6,186,[0.08002729],74,44,hard,minus,dotcolour,beta,,,60,19,V,R,
218,92,8,5,1,47,33,751,['c'],1,left,['1'],6,86,[0.07691059],79,47,medium,minus,dotcolour,beta,,,60,19,V,R,
219,93,9,5,1,53,27,850,['c'],1,left,['2'],5,154,[0.11534256],94,53,easy,minus,dotcolour,beta,,,60,19,V,R,
220,94,10,5,1,36,44,784,['n'],1,right,['2'],5,206,[-0.02642644],24,44,hard,minus,dotcolour,beta,,,60,19,V,R,
221,95,11,5,1,47,33,783,['c'],1,left,['2'],5,95,[0.13956213],99,47,medium,minus,dotcolour,beta,,,60,19,V,R,
222,96,12,5,1,33,47,884,['n'],1,right,['2'],5,89,[-0.15362491],100,47,medium,minus,dotcolour,beta,,,60,19,V,R,
223,97,13,5,1,27,53,700,['n'],1,right,['2'],5,52,[-0.07937398],87,53,easy,minus,dotcolour,beta,,,60,19,V,R,
224,98,14,5,1,53,27,2067,['c'],1,left,['8'],3,168,[0.11285883],93,53,easy,minus,dotcolour,beta,,,60,19,V,R,
225,99,15,5,1,33,47,683,['n'],1,right,['2'],5,80,[-0.07894974],82,47,medium,minus,dotcolour,beta,,,60,19,V,R,
226,100,16,5,1,53,27,950,['c'],1,left,['2'],5,784,[0.14775833],87,53,easy,minus,dotcolour,beta,,,60,19,V,R,
227,101,17,5,1,33,47,767,['n'],1,right,['2'],5,68,[-0.10738077],97,47,medium,minus,dotcolour,beta,,,60,19,V,R,
228,102,18,5,1,36,44,816,['n'],1,right,['2'],5,97,[-0.03761132],26,44,hard,minus,dotcolour,beta,,,60,19,V,R,
229,103,19,5,1,53,27,1267,['c'],1,left,['2'],5,244,[0.1236722],92,53,easy,minus,dotcolour,beta,,,60,19,V,R,
230,104,20,5,1,47,33,1150,['c'],1,left,['2'],5,117,[0.10585809],93,47,medium,minus,dotcolour,beta,,,60,19,V,R,
231,105,21,5,1,44,36,850,['c'],1,left,['2'],5,40,[0.08492672],93,44,hard,minus,dotcolour,beta,,,60,19,V,R,
232,106,22,5,1,47,33,917,['n'],0,left,['2'],5,18,[-0.07559614],94,47,medium,minus,dotcolour,beta,,,60,19,V,R,
233,107,23,5,1,27,53,1050,['n'],1,right,['3'],4,137,[-0.04254377],35,53,easy,minus,dotcolour,beta,,,60,19,V,R,
234,108,24,5,1,33,47,816,['n'],1,right,['2'],5,60,[-0.04769563],36,47,medium,minus,dotcolour,beta,,,60,19,V,R,
235,109,25,5,1,36,44,1751,['c'],0,right,['8'],3,870,[0.0766218],60,44,hard,minus,dotcolour,beta,,,60,19,V,R,
236,110,26,5,1,53,27,1800,['c'],1,left,['8'],3,387,[0.25068232],100,53,easy,minus,dotcolour,beta,,,60,19,V,R,
237,111,27,5,1,27,53,850,['n'],1,right,['2'],5,123,[-0.0817919],79,53,easy,minus,dotcolour,beta,,,60,19,V,R,
238,112,28,5,1,36,44,1400,['n'],1,right,['8'],3,135,[-0.16120282],99,44,hard,minus,dotcolour,beta,,,60,19,V,R,
239,113,29,5,1,27,53,1016,['c'],0,right,['0'],1,1962,[0.04715913],47,53,easy,minus,dotcolour,beta,,,60,19,V,R,
240,114,30,5,1,36,44,1900,['c'],0,right,['3'],4,753,[-0.02483023],16,44,hard,minus,dotcolour,beta,,,60,19,V,R,
241,115,31,5,1,33,47,2967,['c'],0,right,['8'],3,485,[-0.15154509],0,47,medium,minus,dotcolour,beta,,,60,19,V,R,
242,116,32,5,1,36,44,1950,['n'],1,right,['0'],1,173,[-0.07739701],72,44,hard,minus,dotcolour,beta,,,60,19,V,R,
243,117,33,5,1,47,33,1767,['c'],1,left,['1'],6,129,[0.08657431],83,47,medium,minus,dotcolour,beta,,,60,19,V,R,
244,118,34,5,1,33,47,1351,['n'],1,right,['2'],5,1263,[-0.20978464],92,47,medium,minus,dotcolour,beta,,,60,19,V,R,
245,119,35,5,1,33,47,1150,['n'],1,right,['3'],4,1103,[-0.33299308],99,47,medium,minus,dotcolour,beta,,,60,19,V,R,
246,120,36,5,1,47,33,1516,['c'],1,left,['2'],5,279,[0.06434352],57,47,medium,minus,dotcolour,beta,,,60,19,V,R,
247,121,37,5,1,36,44,1149,['c'],0,right,['2'],5,191,[0.07454301],69,44,hard,minus,dotcolour,beta,,,60,19,V,R,
248,122,38,5,1,27,53,1849,['n'],1,right,['2'],5,247,[-0.1562505],97,53,easy,minus,dotcolour,beta,,,60,19,V,R,
249,123,39,5,1,44,36,1851,['c'],1,left,['2'],5,139,[0.08456815],80,44,hard,minus,dotcolour,beta,,,60,19,V,R,
250,124,40,5,1,44,36,1234,['c'],1,left,['2'],5,6,[0.06250234],83,44,hard,minus,dotcolour,beta,,,60,19,V,R,
251,125,41,5,1,27,53,901,['n'],1,right,['2'],5,107,[-0.09936272],92,53,easy,minus,dotcolour,beta,,,60,19,V,R,
252,0,0,6,2,44,36,1483,['c'],1,left,['2'],5,495,[0.05453965],94,44,hard,plus,dotcolour,beta,,,60,19,V,R,
253,1,1,6,2,53,27,1100,['c'],1,left,['2'],5,864,[0.29376983],100,53,easy,plus,dotcolour,beta,,,60,19,V,R,
254,2,2,6,2,27,53,751,['n'],1,right,['2'],5,160,[-0.12127128],100,53,easy,plus,dotcolour,beta,,,60,19,V,R,
255,3,3,6,2,36,44,1167,['c'],0,right,['2'],5,85,[0.06943623],100,44,hard,plus,dotcolour,beta,,,60,19,V,R,
256,4,4,6,2,33,47,750,['n'],1,right,['2'],5,109,[-0.09348624],100,47,medium,plus,dotcolour,beta,,,60,19,V,R,
257,5,5,6,2,53,27,801,['c'],1,left,['2'],5,49,[0.10342495],100,53,easy,plus,dotcolour,beta,,,60,19,V,R,
258,6,6,6,2,27,53,833,['n'],1,right,['2'],5,80,[-0.1200556],100,53,easy,plus,dotcolour,beta,,,60,19,V,R,
259,7,7,6,2,44,36,733,['c'],1,left,['2'],5,64,[0.06173207],100,44,hard,plus,dotcolour,beta,,,60,19,V,R,
260,8,8,6,2,44,36,2651,['n'],0,left,['2'],5,381,[-0.05673878],96,44,hard,plus,dotcolour,beta,,,60,19,V,R,
261,9,9,6,2,47,33,600,['c'],1,left,['2'],5,46,[0.06971025],100,47,medium,plus,dotcolour,beta,,,60,19,V,R,
262,10,10,6,2,27,53,617,['n'],1,right,['2'],5,21,[-0.07942168],100,53,easy,plus,dotcolour,beta,,,60,19,V,R,
263,11,11,6,2,33,47,1033,['n'],1,right,['2'],5,45,[-0.05242176],100,47,medium,plus,dotcolour,beta,,,60,19,V,R,
264,12,12,6,2,33,47,550,['c'],0,right,['2'],5,94,[0.06589401],100,47,medium,plus,dotcolour,beta,,,60,19,V,R,
265,13,13,6,2,47,33,1251,['n'],0,left,['2'],5,74,[-0.08263398],100,47,medium,plus,dotcolour,beta,,,60,19,V,R,
266,14,14,6,2,36,44,1200,['c'],0,right,['2'],5,72,[0.10051152],100,44,hard,plus,dotcolour,beta,,,60,19,V,R,
267,15,15,6,2,47,33,1583,['n'],0,left,['8'],3,207,[-0.06866556],99,47,medium,plus,dotcolour,beta,,,60,19,V,R,
268,16,16,6,2,36,44,1867,['n'],1,right,['8'],3,141,[-0.0547556],99,44,hard,plus,dotcolour,beta,,,60,19,V,R,
269,17,17,6,2,44,36,1834,['c'],1,left,['8'],3,191,[0.02357067],96,44,hard,plus,dotcolour,beta,,,60,19,V,R,
270,18,18,6,2,27,53,1200,['n'],1,right,['1'],6,104,[-0.10861241],100,53,easy,plus,dotcolour,beta,,,60,19,V,R,
271,19,19,6,2,36,44,967,['n'],1,right,['1'],6,55,[-0.08047375],100,44,hard,plus,dotcolour,beta,,,60,19,V,R,
272,20,20,6,2,47,33,1184,['c'],1,left,['1'],6,96,[0.11459461],100,47,medium,plus,dotcolour,beta,,,60,19,V,R,
273,21,21,6,2,44,36,1784,['n'],0,left,['1'],6,101,[-0.09782212],100,44,hard,plus,dotcolour,beta,,,60,19,V,R,
274,22,22,6,2,53,27,1234,['c'],1,left,['1'],6,57,[0.05823713],100,53,easy,plus,dotcolour,beta,,,60,19,V,R,
275,23,23,6,2,36,44,2200,['n'],1,right,['1'],6,176,[-0.12690896],100,44,hard,plus,dotcolour,beta,,,60,19,V,R,
276,24,24,6,2,33,47,566,['n'],1,right,['1'],6,227,[-0.1647727],100,47,medium,plus,dotcolour,beta,,,60,19,V,R,
277,25,25,6,2,33,47,700,['n'],1,right,['1'],6,111,[-0.10260117],100,47,medium,plus,dotcolour,beta,,,60,19,V,R,
278,26,26,6,2,33,47,750,['n'],1,right,['1'],6,30,[-0.03971533],100,47,medium,plus,dotcolour,beta,,,60,19,V,R,
279,27,27,6,2,36,44,2000,['n'],1,right,['8'],3,350,[-0.18425945],100,44,hard,plus,dotcolour,beta,,,60,19,V,R,
280,28,28,6,2,53,27,900,['c'],1,left,['1'],6,77,[0.05090887],100,53,easy,plus,dotcolour,beta,,,60,19,V,R,
281,29,29,6,2,27,53,684,['n'],1,right,['1'],6,88,[-0.04502317],100,53,easy,plus,dotcolour,beta,,,60,19,V,R,
282,30,30,6,2,27,53,633,['n'],1,right,['1'],6,13,[-0.07382181],100,53,easy,plus,dotcolour,beta,,,60,19,V,R,
283,31,31,6,2,27,53,584,['n'],1,right,['1'],6,94,[-0.12079714],100,53,easy,plus,dotcolour,beta,,,60,19,V,R,
284,32,32,6,2,47,33,584,['c'],1,left,['1'],6,44,[0.07349578],100,47,medium,plus,dotcolour,beta,,,60,19,V,R,
285,33,33,6,2,44,36,717,['c'],1,left,['1'],6,95,[0.07109177],100,44,hard,plus,dotcolour,beta,,,60,19,V,R,
286,34,34,6,2,53,27,550,['c'],1,left,['1'],6,142,[0.10568107],100,53,easy,plus,dotcolour,beta,,,60,19,V,R,
287,35,35,6,2,53,27,567,['c'],1,left,['1'],6,147,[0.05003155],99,53,easy,plus,dotcolour,beta,,,60,19,V,R,
288,36,36,6,2,47,33,1583,['c'],1,left,['2'],5,999,[0.27777403],100,47,medium,plus,dotcolour,beta,,,60,19,V,R,
289,37,37,6,2,44,36,1867,['c'],1,left,['2'],5,910,[0.03069305],84,44,hard,plus,dotcolour,beta,,,60,19,V,R,
290,38,38,6,2,47,33,884,['c'],1,left,['2'],5,607,[0.02473818],86,47,medium,plus,dotcolour,beta,,,60,19,V,R,
291,39,39,6,2,33,47,767,['n'],1,right,['2'],5,225,[-0.13776381],100,47,medium,plus,dotcolour,beta,,,60,19,V,R,
292,40,40,6,2,53,27,650,['c'],1,left,['2'],5,143,[0.05857465],100,53,easy,plus,dotcolour,beta,,,60,19,V,R,
293,41,41,6,2,36,44,2034,['c'],0,right,['2'],5,10,[0.05633364],100,44,hard,plus,dotcolour,beta,,,60,19,V,R,
294,42,0,7,2,44,36,2083,['n'],0,left,['8'],3,249,[-0.04188998],97,44,hard,plus,dotcolour,beta,,,60,19,V,R,
295,43,1,7,2,47,33,1317,['c'],1,left,['8'],3,211,[0.11067772],100,47,medium,plus,dotcolour,beta,,,60,19,V,R,
296,44,2,7,2,36,44,700,['c'],0,right,['8'],3,168,[0.06670105],100,44,hard,plus,dotcolour,beta,,,60,19,V,R,
297,45,3,7,2,33,47,1300,['n'],1,right,['2'],5,271,[-0.13932618],100,47,medium,plus,dotcolour,beta,,,60,19,V,R,
298,46,4,7,2,44,36,1533,['c'],1,left,['8'],3,176,[0.10533216],100,44,hard,plus,dotcolour,beta,,,60,19,V,R,
299,47,5,7,2,27,53,1083,['n'],1,right,['2'],5,111,[-0.10552219],100,53,easy,plus,dotcolour,beta,,,60,19,V,R,
300,48,6,7,2,27,53,667,['n'],1,right,['1'],6,129,[-0.02019035],98,53,easy,plus,dotcolour,beta,,,60,19,V,R,
301,49,7,7,2,44,36,868,['c'],1,left,['1'],6,82,[0.06106123],100,44,hard,plus,dotcolour,beta,,,60,19,V,R,
302,50,8,7,2,36,44,2116,['n'],1,right,['1'],6,44,[-0.09331903],100,44,hard,plus,dotcolour,beta,,,60,19,V,R,
303,51,9,7,2,27,53,1134,['n'],1,right,['1'],6,93,[-0.07715837],100,53,easy,plus,dotcolour,beta,,,60,19,V,R,
304,52,10,7,2,44,36,1550,['c'],1,left,['8'],3,157,[0.08282689],100,44,hard,plus,dotcolour,beta,,,60,19,V,R,
305,53,11,7,2,47,33,1300,['n'],0,left,['8'],3,164,[-0.04133204],99,47,medium,plus,dotcolour,beta,,,60,19,V,R,
306,54,12,7,2,53,27,1617,['c'],1,left,['3'],4,125,[0.1451094],100,53,easy,plus,dotcolour,beta,,,60,19,V,R,
307,55,13,7,2,44,36,1483,['c'],1,left,['3'],4,78,[0.08027049],100,44,hard,plus,dotcolour,beta,,,60,19,V,R,
308,56,14,7,2,47,33,650,['c'],1,left,['3'],4,99,[0.02919296],99,47,medium,plus,dotcolour,beta,,,60,19,V,R,
309,57,15,7,2,47,33,750,['c'],1,left,['3'],4,18,[0.06571698],100,47,medium,plus,dotcolour,beta,,,60,19,V,R,
310,58,16,7,2,33,47,717,['n'],1,right,['1'],6,422,[-0.07009594],97,47,medium,plus,dotcolour,beta,,,60,19,V,R,
311,59,17,7,2,33,47,1300,['n'],1,right,['2'],5,234,[-0.17420517],100,47,medium,plus,dotcolour,beta,,,60,19,V,R,
312,60,18,7,2,33,47,1750,['n'],1,right,['2'],5,116,[-0.03497874],99,47,medium,plus,dotcolour,beta,,,60,19,V,R,
313,61,19,7,2,33,47,1118,['n'],1,right,['3'],4,68,[-0.06037968],100,47,medium,plus,dotcolour,beta,,,60,19,V,R,
314,62,20,7,2,36,44,1467,['n'],1,right,['3'],4,120,[-0.06938763],100,44,hard,plus,dotcolour,beta,,,60,19,V,R,
315,63,21,7,2,53,27,1849,['c'],1,left,['1'],6,139,[0.14236023],100,53,easy,plus,dotcolour,beta,,,60,19,V,R,
316,64,22,7,2,27,53,816,['n'],1,right,['1'],6,135,[-0.09554987],100,53,easy,plus,dotcolour,beta,,,60,19,V,R,
317,65,23,7,2,53,27,767,['c'],1,left,['1'],6,75,[0.0479029],100,53,easy,plus,dotcolour,beta,,,60,19,V,R,
318,66,24,7,2,53,27,700,['c'],1,left,['1'],6,86,[0.10924173],100,53,easy,plus,dotcolour,beta,,,60,19,V,R,
319,67,25,7,2,44,36,1084,['n'],0,left,['0'],1,176,[-0.06968273],100,44,hard,plus,dotcolour,beta,,,60,19,V,R,
320,68,26,7,2,47,33,867,['c'],1,left,['1'],6,47,[0.09363162],100,47,medium,plus,dotcolour,beta,,,60,19,V,R,
321,69,27,7,2,47,33,1134,['c'],1,left,['1'],6,9,[0.06394666],100,47,medium,plus,dotcolour,beta,,,60,19,V,R,
322,70,28,7,2,47,33,650,['c'],1,left,['1'],6,8,[0.06202286],100,47,medium,plus,dotcolour,beta,,,60,19,V,R,
323,71,29,7,2,53,27,566,['c'],1,left,['1'],6,34,[0.08241182],100,53,easy,plus,dotcolour,beta,,,60,19,V,R,
324,72,30,7,2,33,47,600,['n'],1,right,['1'],6,82,[-0.09060772],100,47,medium,plus,dotcolour,beta,,,60,19,V,R,
325,73,31,7,2,36,44,534,['n'],1,right,['1'],6,107,[-0.05206433],100,44,hard,plus,dotcolour,beta,,,60,19,V,R,
326,74,32,7,2,44,36,1250,['c'],1,left,['1'],6,109,[0.03410388],99,44,hard,plus,dotcolour,beta,,,60,19,V,R,
327,75,33,7,2,53,27,817,['c'],1,left,['1'],6,65,[0.05441584],100,53,easy,plus,dotcolour,beta,,,60,19,V,R,
328,76,34,7,2,36,44,751,['n'],1,right,['1'],6,66,[-0.06344645],100,44,hard,plus,dotcolour,beta,,,60,19,V,R,
329,77,35,7,2,27,53,550,['n'],1,right,['1'],6,43,[-0.08826752],100,53,easy,plus,dotcolour,beta,,,60,19,V,R,
330,78,36,7,2,36,44,733,['c'],0,right,['1'],6,5,[0.07402404],100,44,hard,plus,dotcolour,beta,,,60,19,V,R,
331,79,37,7,2,33,47,950,['n'],1,right,['1'],6,104,[-0.1227536],100,47,medium,plus,dotcolour,beta,,,60,19,V,R,
332,80,38,7,2,53,27,1334,['c'],1,left,['1'],6,88,[0.0669525],100,53,easy,plus,dotcolour,beta,,,60,19,V,R,
333,81,39,7,2,27,53,799,['n'],1,right,['1'],6,30,[-0.09087018],100,53,easy,plus,dotcolour,beta,,,60,19,V,R,
334,82,40,7,2,36,44,667,['n'],1,right,['1'],6,123,[-0.11948786],100,44,hard,plus,dotcolour,beta,,,60,19,V,R,
335,83,41,7,2,27,53,634,['n'],1,right,['1'],6,118,[-0.05928885],100,53,easy,plus,dotcolour,beta,,,60,19,V,R,
336,84,0,8,2,44,36,884,['c'],1,left,['1'],6,12,[0.07468606],100,44,hard,plus,dotcolour,beta,,,60,19,V,R,
337,85,1,8,2,27,53,1617,['n'],1,right,['2'],5,380,[-0.09566529],99,53,easy,plus,dotcolour,beta,,,60,19,V,R,
338,86,2,8,2,44,36,800,['c'],1,left,['1'],6,62,[0.04173761],100,44,hard,plus,dotcolour,beta,,,60,19,V,R,
339,87,3,8,2,53,27,767,['c'],1,left,['2'],5,278,[0.15511345],100,53,easy,plus,dotcolour,beta,,,60,19,V,R,
340,88,4,8,2,44,36,1218,['c'],1,left,['2'],5,116,[0.09538673],100,44,hard,plus,dotcolour,beta,,,60,19,V,R,
341,89,5,8,2,53,27,916,['c'],1,left,['2'],5,84,[0.06840255],100,53,easy,plus,dotcolour,beta,,,60,19,V,R,
342,90,6,8,2,33,47,1017,['n'],1,right,['2'],5,128,[-0.14447647],100,47,medium,plus,dotcolour,beta,,,60,19,V,R,
343,91,7,8,2,33,47,734,['n'],1,right,['2'],5,111,[-0.03609132],99,47,medium,plus,dotcolour,beta,,,60,19,V,R,
344,92,8,8,2,36,44,584,['n'],1,right,['2'],5,37,[-0.08939265],100,44,hard,plus,dotcolour,beta,,,60,19,V,R,
345,93,9,8,2,27,53,635,['n'],1,right,['2'],5,27,[-0.06964064],100,53,easy,plus,dotcolour,beta,,,60,19,V,R,
346,94,10,8,2,33,47,567,['n'],1,right,['2'],5,21,[-0.06029239],100,47,medium,plus,dotcolour,beta,,,60,19,V,R,
347,95,11,8,2,47,33,901,['c'],1,left,['2'],5,49,[0.08022925],100,47,medium,plus,dotcolour,beta,,,60,19,V,R,
348,96,12,8,2,53,27,499,['c'],1,left,['2'],5,21,[0.07497232],100,53,easy,plus,dotcolour,beta,,,60,19,V,R,
349,97,13,8,2,36,44,600,['n'],1,right,['2'],5,701,[-0.17500562],99,44,hard,plus,dotcolour,beta,,,60,19,V,R,
350,98,14,8,2,44,36,850,['c'],1,left,['2'],5,65,[0.12471108],100,44,hard,plus,dotcolour,beta,,,60,19,V,R,
351,99,15,8,2,47,33,634,['c'],1,left,['2'],5,38,[0.05247889],100,47,medium,plus,dotcolour,beta,,,60,19,V,R,
352,100,16,8,2,53,27,566,['c'],1,left,['2'],5,55,[0.0925414],100,53,easy,plus,dotcolour,beta,,,60,19,V,R,
353,101,17,8,2,27,53,567,['n'],1,right,['2'],5,80,[-0.07136262],100,53,easy,plus,dotcolour,beta,,,60,19,V,R,
354,102,18,8,2,47,33,950,['c'],1,left,['2'],5,400,[0.05436754],96,47,medium,plus,dotcolour,beta,,,60,19,V,R,
355,103,19,8,2,47,33,1600,['n'],0,left,['2'],5,98,[-0.09131276],100,47,medium,plus,dotcolour,beta,,,60,19,V,R,
356,104,20,8,2,36,44,1550,['n'],1,right,['8'],3,121,[-0.12042253],100,44,hard,plus,dotcolour,beta,,,60,19,V,R,
357,105,21,8,2,36,44,1166,['n'],1,right,['8'],3,111,[-0.09793761],100,44,hard,plus,dotcolour,beta,,,60,19,V,R,
358,106,22,8,2,44,36,1167,['c'],1,left,['8'],3,621,[0.11803384],98,44,hard,plus,dotcolour,beta,,,60,19,V,R,
359,107,23,8,2,47,33,784,['c'],1,left,['8'],3,150,[0.13128746],100,47,medium,plus,dotcolour,beta,,,60,19,V,R,
360,108,24,8,2,27,53,900,['n'],1,right,['1'],6,317,[-0.18902277],100,53,easy,plus,dotcolour,beta,,,60,19,V,R,
361,109,25,8,2,27,53,634,['n'],1,right,['1'],6,113,[-0.03340317],99,53,easy,plus,dotcolour,beta,,,60,19,V,R,
362,110,26,8,2,33,47,1249,['n'],1,right,['8'],3,459,[-0.21208122],100,47,medium,plus,dotcolour,beta,,,60,19,V,R,
363,111,27,8,2,27,53,784,['n'],1,right,['1'],6,50,[-0.04424973],100,53,easy,plus,dotcolour,beta,,,60,19,V,R,
364,112,28,8,2,27,53,567,['n'],1,right,['1'],6,115,[-0.02445029],99,53,easy,plus,dotcolour,beta,,,60,19,V,R,
365,113,29,8,2,47,33,883,['c'],1,left,['1'],6,108,[0.03390872],99,47,medium,plus,dotcolour,beta,,,60,19,V,R,
366,114,30,8,2,33,47,750,['n'],1,right,['1'],6,131,[-0.05276871],100,47,medium,plus,dotcolour,beta,,,60,19,V,R,
367,115,31,8,2,36,44,984,['n'],1,right,['1'],6,168,[-0.11284304],100,44,hard,plus,dotcolour,beta,,,60,19,V,R,
368,116,32,8,2,44,36,917,['c'],1,left,['1'],6,102,[0.07756999],100,44,hard,plus,dotcolour,beta,,,60,19,V,R,
369,117,33,8,2,44,36,1085,['n'],0,left,['1'],6,72,[-0.02644678],100,44,hard,plus,dotcolour,beta,,,60,19,V,R,
370,118,34,8,2,53,27,967,['c'],1,left,['1'],6,88,[0.12712518],100,53,easy,plus,dotcolour,beta,,,60,19,V,R,
371,119,35,8,2,36,44,867,['n'],1,right,['1'],6,75,[-0.05868938],100,44,hard,plus,dotcolour,beta,,,60,19,V,R,
372,120,36,8,2,36,44,616,['n'],1,right,['1'],6,105,[-0.04891898],100,44,hard,plus,dotcolour,beta,,,60,19,V,R,
373,121,37,8,2,53,27,633,['c'],1,left,['1'],6,101,[0.06804454],100,53,easy,plus,dotcolour,beta,,,60,19,V,R,
374,122,38,8,2,47,33,2334,['c'],1,left,['8'],3,877,[0.17617484],99,47,medium,plus,dotcolour,beta,,,60,19,V,R,
375,123,39,8,2,33,47,1400,['n'],1,right,['8'],3,243,[-0.19666866],100,47,medium,plus,dotcolour,beta,,,60,19,V,R,
376,124,40,8,2,33,47,917,['n'],1,right,['1'],6,142,[-0.12189753],100,47,medium,plus,dotcolour,beta,,,60,19,V,R,
377,125,41,8,2,53,27,717,['c'],1,left,['2'],5,205,[0.12219056],100,53,easy,plus,dotcolour,beta,,,60,19,V,R,
378,0,0,9,3,47,33,2233,['c'],1,left,['3'],4,815,[0.15931529],89,47,medium,minus,dotcolour,beta,,,60,19,V,R,
379,1,1,9,3,33,47,1150,['c'],0,right,['2'],5,114,[0.1031215],93,47,medium,minus,dotcolour,beta,,,60,19,V,R,
380,2,2,9,3,33,47,1250,['c'],0,right,['3'],4,213,[0.00340808],12,47,medium,minus,dotcolour,beta,,,60,19,V,R,
381,3,3,9,3,27,53,1083,['n'],1,right,['2'],5,138,[-0.11586532],95,53,easy,minus,dotcolour,beta,,,60,19,V,R,
382,4,4,9,3,36,44,1217,['c'],0,right,['2'],5,94,[0.09595845],91,44,hard,minus,dotcolour,beta,,,60,19,V,R,
383,5,5,9,3,47,33,1383,['c'],1,left,['2'],5,92,[0.07368658],75,47,medium,minus,dotcolour,beta,,,60,19,V,R,
384,6,6,9,3,33,47,817,['n'],1,right,['2'],5,120,[-0.08853532],85,47,medium,minus,dotcolour,beta,,,60,19,V,R,
385,7,7,9,3,47,33,900,['c'],1,left,['2'],5,113,[0.09999988],92,47,medium,minus,dotcolour,beta,,,60,19,V,R,
386,8,8,9,3,53,27,584,['c'],1,left,['2'],5,119,[0.05998362],56,53,easy,minus,dotcolour,beta,,,60,19,V,R,
387,9,9,9,3,36,44,1517,['n'],1,right,['8'],3,127,[-0.1010409],91,44,hard,minus,dotcolour,beta,,,60,19,V,R,
388,10,10,9,3,44,36,1333,['c'],1,left,['8'],3,221,[0.13884166],96,44,hard,minus,dotcolour,beta,,,60,19,V,R,
389,11,11,9,3,36,44,785,['c'],0,right,['2'],5,118,[0.05426961],48,44,hard,minus,dotcolour,beta,,,60,19,V,R,
390,12,12,9,3,44,36,1099,['c'],1,left,['2'],5,343,[0.1338136],92,44,hard,minus,dotcolour,beta,,,60,19,V,R,
391,13,13,9,3,47,33,1084,['c'],1,left,['2'],5,80,[0.05986865],57,47,medium,minus,dotcolour,beta,,,60,19,V,R,
392,14,14,9,3,27,53,783,['n'],1,right,['2'],5,45,[-0.09167473],96,53,easy,minus,dotcolour,beta,,,60,19,V,R,
393,15,15,9,3,53,27,700,['c'],1,left,['2'],5,753,[0.14063557],85,53,easy,minus,dotcolour,beta,,,60,19,V,R,
394,16,16,9,3,33,47,2100,['n'],1,right,['8'],3,128,[-0.09952328],90,47,medium,minus,dotcolour,beta,,,60,19,V,R,
395,17,17,9,3,53,27,551,['c'],1,left,['2'],5,62,[0.11889062],99,53,easy,minus,dotcolour,beta,,,60,19,V,R,
396,18,18,9,3,27,53,834,['n'],1,right,['2'],5,3,[-0.06836763],99,53,easy,minus,dotcolour,beta,,,60,19,V,R,
397,19,19,9,3,33,47,884,['n'],1,right,['2'],5,529,[-0.12735025],86,47,medium,minus,dotcolour,beta,,,60,19,V,R,
398,20,20,9,3,47,33,717,['c'],1,left,['2'],5,81,[0.08003301],82,47,medium,minus,dotcolour,beta,,,60,19,V,R,
399,21,21,9,3,44,36,917,['c'],1,left,['2'],5,82,[0.09521583],92,44,hard,minus,dotcolour,beta,,,60,19,V,R,
400,22,22,9,3,33,47,734,['n'],1,right,['2'],5,99,[-0.06869466],68,47,medium,minus,dotcolour,beta,,,60,19,V,R,
401,23,23,9,3,53,27,867,['c'],1,left,['2'],5,22,[0.07045258],86,53,easy,minus,dotcolour,beta,,,60,19,V,R,
402,24,24,9,3,44,36,1599,['c'],1,left,['3'],4,1262,[-0.01649584],24,44,hard,minus,dotcolour,beta,,,60,19,V,R,
403,25,25,9,3,36,44,1751,['c'],0,right,['2'],5,55,[0.07400247],80,44,hard,minus,dotcolour,beta,,,60,19,V,R,
404,26,26,9,3,53,27,2050,['c'],1,left,['2'],5,60,[0.06160228],61,53,easy,minus,dotcolour,beta,,,60,19,V,R,
405,27,27,9,3,27,53,1050,['n'],1,right,['2'],5,41,[-0.04941651],37,53,easy,minus,dotcolour,beta,,,60,19,V,R,
406,28,28,9,3,47,33,834,['c'],1,left,['2'],5,7,[0.06123526],77,47,medium,minus,dotcolour,beta,,,60,19,V,R,
407,29,29,9,3,27,53,950,['n'],1,right,['2'],5,66,[-0.08572529],89,53,easy,minus,dotcolour,beta,,,60,19,V,R,
408,30,30,9,3,36,44,1550,['c'],0,right,['2'],5,490,[-0.03801431],8,44,hard,minus,dotcolour,beta,,,60,19,V,R,
409,31,31,9,3,44,36,1600,['c'],1,left,['2'],5,553,[0.1643944],93,44,hard,minus,dotcolour,beta,,,60,19,V,R,
410,32,32,9,3,44,36,684,['c'],1,left,['2'],5,24,[0.0889615],98,44,hard,minus,dotcolour,beta,,,60,19,V,R,
411,33,33,9,3,27,53,833,['c'],0,right,['2'],5,40,[0.03720656],16,53,easy,minus,dotcolour,beta,,,60,19,V,R,
412,34,34,9,3,44,36,1084,['n'],0,left,['2'],5,108,[-0.0556466],50,44,hard,minus,dotcolour,beta,,,60,19,V,R,
413,35,35,9,3,53,27,2249,['c'],1,left,['3'],4,775,[0.26704093],99,53,easy,minus,dotcolour,beta,,,60,19,V,R,
414,36,36,9,3,27,53,1250,['n'],1,right,['2'],5,111,[-0.02490072],16,53,easy,minus,dotcolour,beta,,,60,19,V,R,
415,37,37,9,3,53,27,767,['c'],1,left,['2'],5,61,[0.05404303],47,53,easy,minus,dotcolour,beta,,,60,19,V,R,
416,38,38,9,3,36,44,1383,['c'],0,right,['2'],5,92,[0.04536228],35,44,hard,minus,dotcolour,beta,,,60,19,V,R,
417,39,39,9,3,47,33,1334,['c'],1,left,['2'],5,12,[0.08022083],98,47,medium,minus,dotcolour,beta,,,60,19,V,R,
418,40,40,9,3,36,44,885,['n'],1,right,['2'],5,65,[-0.10471441],97,44,hard,minus,dotcolour,beta,,,60,19,V,R,
419,41,41,9,3,33,47,850,['n'],1,right,['2'],5,46,[-0.08031219],89,47,medium,minus,dotcolour,beta,,,60,19,V,R,
420,42,0,10,3,53,27,785,['c'],1,left,['2'],5,33,[0.06233056],66,53,easy,minus,dotcolour,beta,,,60,19,V,R,
421,43,1,10,3,47,33,700,['c'],1,left,['2'],5,53,[0.09934207],97,47,medium,minus,dotcolour,beta,,,60,19,V,R,
422,44,2,10,3,33,47,1617,['n'],1,right,['8'],3,108,[-0.073423],73,47,medium,minus,dotcolour,beta,,,60,19,V,R,
423,45,3,10,3,47,33,1617,['c'],1,left,['3'],4,624,[0.09101912],69,47,medium,minus,dotcolour,beta,,,60,19,V,R,
424,46,4,10,3,36,44,2116,['c'],0,right,['3'],4,532,[0.06321896],55,44,hard,minus,dotcolour,beta,,,60,19,V,R,
425,47,5,10,3,27,53,2151,['c'],0,right,['2'],5,658,[0.06668945],56,53,easy,minus,dotcolour,beta,,,60,19,V,R,
426,48,6,10,3,27,53,916,['n'],1,right,['8'],3,60,[-0.08807381],92,53,easy,minus,dotcolour,beta,,,60,19,V,R,
427,49,7,10,3,44,36,866,['c'],1,left,['8'],3,176,[0.02306979],20,44,hard,minus,dotcolour,beta,,,60,19,V,R,
428,50,8,10,3,36,44,1634,['n'],1,right,['3'],4,408,[-0.05285185],48,44,hard,minus,dotcolour,beta,,,60,19,V,R,
429,51,9,10,3,44,36,1634,['n'],0,left,['3'],4,160,[-0.12506042],96,44,hard,minus,dotcolour,beta,,,60,19,V,R,
430,52,10,10,3,53,27,1484,['c'],1,left,['3'],4,231,[0.05737287],52,53,easy,minus,dotcolour,beta,,,60,19,V,R,
431,53,11,10,3,47,33,1650,['c'],1,left,['3'],4,101,[0.09694372],91,47,medium,minus,dotcolour,beta,,,60,19,V,R,
432,54,12,10,3,36,44,1000,['n'],1,right,['3'],4,66,[-0.09758466],95,44,hard,minus,dotcolour,beta,,,60,19,V,R,
433,55,13,10,3,27,53,1067,['n'],1,right,['8'],3,55,[-0.06496647],67,53,easy,minus,dotcolour,beta,,,60,19,V,R,
434,56,14,10,3,27,53,1135,['n'],1,right,['2'],5,80,[-0.08442508],86,53,easy,minus,dotcolour,beta,,,60,19,V,R,
435,57,15,10,3,27,53,617,['n'],1,right,['2'],5,110,[-0.07910542],78,53,easy,minus,dotcolour,beta,,,60,19,V,R,
436,58,16,10,3,36,44,1933,['c'],0,right,['2'],5,149,[0.05330107],47,44,hard,minus,dotcolour,beta,,,60,19,V,R,
437,59,17,10,3,33,47,1033,['n'],1,right,['2'],5,71,[-0.11116885],98,47,medium,minus,dotcolour,beta,,,60,19,V,R,
438,60,18,10,3,27,53,1384,['n'],1,right,['2'],5,47,[-0.08422325],92,53,easy,minus,dotcolour,beta,,,60,19,V,R,
439,61,19,10,3,44,36,1034,['c'],1,left,['2'],5,61,[0.14804032],100,44,hard,minus,dotcolour,beta,,,60,19,V,R,
440,62,20,10,3,27,53,883,['n'],1,right,['2'],5,8,[-0.08991932],100,53,easy,minus,dotcolour,beta,,,60,19,V,R,
441,63,21,10,3,53,27,1050,['c'],1,left,['2'],5,79,[0.06759766],68,53,easy,minus,dotcolour,beta,,,60,19,V,R,
442,64,22,10,3,53,27,1118,['c'],1,left,['2'],5,64,[0.0777398],83,53,easy,minus,dotcolour,beta,,,60,19,V,R,
443,65,23,10,3,33,47,632,['n'],1,right,['2'],5,29,[-0.07940697],93,47,medium,minus,dotcolour,beta,,,60,19,V,R,
444,66,24,10,3,36,44,1000,['c'],0,right,['2'],5,62,[0.10303912],97,44,hard,minus,dotcolour,beta,,,60,19,V,R,
445,67,25,10,3,47,33,767,['c'],1,left,['2'],5,54,[0.07984409],87,47,medium,minus,dotcolour,beta,,,60,19,V,R,
446,68,26,10,3,47,33,717,['c'],1,left,['2'],5,56,[0.07864478],85,47,medium,minus,dotcolour,beta,,,60,19,V,R,
447,69,27,10,3,44,36,917,['c'],1,left,['2'],5,43,[0.08137362],90,44,hard,minus,dotcolour,beta,,,60,19,V,R,
448,70,28,10,3,53,27,450,['c'],1,left,['2'],5,16,[0.07814123],96,53,easy,minus,dotcolour,beta,,,60,19,V,R,
449,71,29,10,3,47,33,534,['c'],1,left,['2'],5,84,[0.09172801],90,47,medium,minus,dotcolour,beta,,,60,19,V,R,
450,72,30,10,3,44,36,1251,['c'],1,left,['2'],5,80,[0.04072406],28,44,hard,minus,dotcolour,beta,,,60,19,V,R,
451,73,31,10,3,36,44,1350,['n'],1,right,['2'],5,656,[0.01543267],17,44,hard,minus,dotcolour,beta,,,60,19,V,R,
452,74,32,10,3,33,47,833,['n'],1,right,['2'],5,133,[-0.09766554],89,47,medium,minus,dotcolour,beta,,,60,19,V,R,
453,75,33,10,3,44,36,832,['c'],1,left,['2'],5,88,[0.07536176],77,44,hard,minus,dotcolour,beta,,,60,19,V,R,
454,76,34,10,3,53,27,1700,['c'],1,left,['2'],5,106,[0.14799704],99,53,easy,minus,dotcolour,beta,,,60,19,V,R,
455,77,35,10,3,33,47,1683,['n'],1,right,['2'],5,52,[-0.08717753],92,47,medium,minus,dotcolour,beta,,,60,19,V,R,
456,78,36,10,3,53,27,700,['c'],1,left,['2'],5,95,[0.08261653],83,53,easy,minus,dotcolour,beta,,,60,19,V,R,
457,79,37,10,3,36,44,966,['n'],1,right,['1'],6,134,[-0.07734066],74,44,hard,minus,dotcolour,beta,,,60,19,V,R,
458,80,38,10,3,33,47,550,['n'],1,right,['1'],6,29,[-0.08499003],96,47,medium,minus,dotcolour,beta,,,60,19,V,R,
459,81,39,10,3,33,47,901,['c'],0,right,['1'],6,40,[0.0223275],5,47,medium,minus,dotcolour,beta,,,60,19,V,R,
460,82,40,10,3,47,33,1034,['c'],1,left,['1'],6,110,[0.10595452],94,47,medium,minus,dotcolour,beta,,,60,19,V,R,
461,83,41,10,3,44,36,1132,['n'],0,left,['1'],6,31,[-0.06687047],76,44,hard,minus,dotcolour,beta,,,60,19,V,R,
462,84,0,11,3,44,36,884,['c'],1,left,['1'],6,94,[0.10903677],96,44,hard,minus,dotcolour,beta,,,60,19,V,R,
463,85,1,11,3,47,33,699,['c'],1,left,['1'],6,31,[0.08669304],96,47,medium,minus,dotcolour,beta,,,60,19,V,R,
464,86,2,11,3,44,36,1250,['n'],0,left,['1'],6,85,[-0.05326844],46,44,hard,minus,dotcolour,beta,,,60,19,V,R,
465,87,3,11,3,33,47,850,['n'],1,right,['1'],6,89,[-0.07758255],79,47,medium,minus,dotcolour,beta,,,60,19,V,R,
466,88,4,11,3,33,47,1050,['n'],1,right,['1'],6,109,[-0.04888782],41,47,medium,minus,dotcolour,beta,,,60,19,V,R,
467,89,5,11,3,33,47,766,['n'],1,right,['1'],6,35,[-0.11285783],100,47,medium,minus,dotcolour,beta,,,60,19,V,R,
468,90,6,11,3,33,47,916,['n'],1,right,['1'],6,111,[-0.08790205],85,47,medium,minus,dotcolour,beta,,,60,19,V,R,
469,91,7,11,3,53,27,833,['c'],1,left,['1'],6,338,[0.11418116],86,53,easy,minus,dotcolour,beta,,,60,19,V,R,
470,92,8,11,3,44,36,1550,['c'],1,left,['1'],6,56,[0.0754592],82,44,hard,minus,dotcolour,beta,,,60,19,V,R,
471,93,9,11,3,47,33,1434,['c'],1,left,['1'],6,46,[0.02998044],10,47,medium,minus,dotcolour,beta,,,60,19,V,R,
472,94,10,11,3,27,53,767,['n'],1,right,['1'],6,87,[-0.05766906],53,53,easy,minus,dotcolour,beta,,,60,19,V,R,
473,95,11,11,3,33,47,1016,['c'],0,right,['1'],6,76,[0.07687943],80,47,medium,minus,dotcolour,beta,,,60,19,V,R,
474,96,12,11,3,44,36,1283,['c'],1,left,['1'],6,54,[0.05921406],57,44,hard,minus,dotcolour,beta,,,60,19,V,R,
475,97,13,11,3,36,44,783,['n'],1,right,['1'],6,14,[-0.08539091],99,44,hard,minus,dotcolour,beta,,,60,19,V,R,
476,98,14,11,3,47,33,684,['c'],1,left,['1'],6,28,[0.05092214],38,47,medium,minus,dotcolour,beta,,,60,19,V,R,
477,99,15,11,3,36,44,883,['n'],1,right,['1'],6,49,[-0.0537914],46,44,hard,minus,dotcolour,beta,,,60,19,V,R,
478,100,16,11,3,36,44,849,['n'],1,right,['1'],6,54,[-0.07715577],84,44,hard,minus,dotcolour,beta,,,60,19,V,R,
479,101,17,11,3,44,36,750,['c'],1,left,['1'],6,703,[0.17692892],93,44,hard,minus,dotcolour,beta,,,60,19,V,R,
480,102,18,11,3,27,53,683,['n'],1,right,['1'],6,49,[-0.10483259],98,53,easy,minus,dotcolour,beta,,,60,19,V,R,
481,103,19,11,3,36,44,600,['n'],1,right,['1'],6,232,[-0.00966454],15,44,hard,minus,dotcolour,beta,,,60,19,V,R,
482,104,20,11,3,53,27,684,['c'],1,left,['1'],6,13,[0.06332912],77,53,easy,minus,dotcolour,beta,,,60,19,V,R,
483,105,21,11,3,27,53,634,['n'],1,right,['1'],6,508,[-0.07824933],64,53,easy,minus,dotcolour,beta,,,60,19,V,R,
484,106,22,11,3,27,53,550,['n'],1,right,['1'],6,35,[-0.06565839],73,53,easy,minus,dotcolour,beta,,,60,19,V,R,
485,107,23,11,3,36,44,967,['c'],0,right,['1'],6,4,[0.06942931],98,44,hard,minus,dotcolour,beta,,,60,19,V,R,
486,108,24,11,3,53,27,800,['c'],1,left,['1'],6,62,[0.09459844],94,53,easy,minus,dotcolour,beta,,,60,19,V,R,
487,109,25,11,3,47,33,766,['n'],0,left,['1'],6,61,[-0.02509824],10,47,medium,minus,dotcolour,beta,,,60,19,V,R,
488,110,26,11,3,47,33,801,['n'],0,left,['1'],6,61,[-0.09168229],93,47,medium,minus,dotcolour,beta,,,60,19,V,R,
489,111,27,11,3,27,53,668,['n'],1,right,['1'],6,88,[-0.12103879],98,53,easy,minus,dotcolour,beta,,,60,19,V,R,
490,112,28,11,3,33,47,716,['n'],1,right,['1'],6,1,[-0.07270844],100,47,medium,minus,dotcolour,beta,,,60,19,V,R,
491,113,29,11,3,36,44,783,['n'],1,right,['1'],6,51,[-0.06198934],63,44,hard,minus,dotcolour,beta,,,60,19,V,R,
492,114,30,11,3,33,47,766,['n'],1,right,['1'],6,68,[-0.05224346],44,47,medium,minus,dotcolour,beta,,,60,19,V,R,
493,115,31,11,3,44,36,717,['c'],1,left,['1'],6,63,[0.05785623],54,44,hard,minus,dotcolour,beta,,,60,19,V,R,
494,116,32,11,3,53,27,517,['c'],1,left,['1'],6,40,[0.08472456],93,53,easy,minus,dotcolour,beta,,,60,19,V,R,
495,117,33,11,3,27,53,733,['n'],1,right,['1'],6,91,[-0.11471105],97,53,easy,minus,dotcolour,beta,,,60,19,V,R,
496,118,34,11,3,53,27,701,['c'],1,left,['1'],6,4,[0.07979824],100,53,easy,minus,dotcolour,beta,,,60,19,V,R,
497,119,35,11,3,36,44,684,['n'],1,right,['1'],6,75,[-0.0233383],11,44,hard,minus,dotcolour,beta,,,60,19,V,R,
498,120,36,11,3,27,53,616,['c'],0,right,['1'],6,112,[0.0699144],68,53,easy,minus,dotcolour,beta,,,60,19,V,R,
499,121,37,11,3,53,27,1449,['n'],0,left,['8'],3,130,[-0.05421378],48,53,easy,minus,dotcolour,beta,,,60,19,V,R,
500,122,38,11,3,44,36,1301,['c'],1,left,['3'],4,251,[0.16501324],98,44,hard,minus,dotcolour,beta,,,60,19,V,R,
501,123,39,11,3,47,33,1884,['n'],0,left,['2'],5,126,[-0.0290462],21,47,medium,minus,dotcolour,beta,,,60,19,V,R,
502,124,40,11,3,47,33,866,['c'],1,left,['2'],5,120,[0.16343075],100,47,medium,minus,dotcolour,beta,,,60,19,V,R,
503,125,41,11,3,53,27,1600,['c'],1,left,['2'],5,116,[0.08773313],85,53,easy,minus,dotcolour,beta,,,60,19,V,R,
504,0,0,12,4,27,53,1318,['n'],1,right,['2'],5,104,[-0.07128603],100,53,easy,plus,dotcolour,beta,,,60,19,V,R,
505,1,1,12,4,47,33,984,['c'],1,left,['3'],4,158,[0.01596877],96,47,medium,plus,dotcolour,beta,,,60,19,V,R,
506,2,2,12,4,33,47,783,['n'],1,right,['2'],5,801,[-0.07009911],93,47,medium,plus,dotcolour,beta,,,60,19,V,R,
507,3,3,12,4,44,36,1483,['c'],1,left,['2'],5,79,[0.03791571],100,44,hard,plus,dotcolour,beta,,,60,19,V,R,
508,4,4,12,4,44,36,1850,['n'],0,left,['8'],3,395,[-0.07288951],98,44,hard,plus,dotcolour,beta,,,60,19,V,R,
509,5,5,12,4,27,53,717,['n'],1,right,['8'],3,72,[-0.06679783],100,53,easy,plus,dotcolour,beta,,,60,19,V,R,
510,6,6,12,4,53,27,883,['c'],1,left,['2'],5,27,[0.08482306],100,53,easy,plus,dotcolour,beta,,,60,19,V,R,
511,7,7,12,4,27,53,632,['n'],1,right,['2'],5,57,[-0.0949804],100,53,easy,plus,dotcolour,beta,,,60,19,V,R,
512,8,8,12,4,36,44,584,['n'],1,right,['2'],5,17,[-0.07704261],100,44,hard,plus,dotcolour,beta,,,60,19,V,R,
513,9,9,12,4,47,33,550,['c'],1,left,['2'],5,75,[0.12132143],100,47,medium,plus,dotcolour,beta,,,60,19,V,R,
514,10,10,12,4,47,33,583,['c'],1,left,['2'],5,42,[0.09613937],100,47,medium,plus,dotcolour,beta,,,60,19,V,R,
515,11,11,12,4,53,27,984,['c'],1,left,['2'],5,50,[0.08960698],100,53,easy,plus,dotcolour,beta,,,60,19,V,R,
516,12,12,12,4,47,33,650,['c'],1,left,['2'],5,87,[0.07251283],100,47,medium,plus,dotcolour,beta,,,60,19,V,R,
517,13,13,12,4,53,27,701,['c'],1,left,['2'],5,42,[0.08196779],100,53,easy,plus,dotcolour,beta,,,60,19,V,R,
518,14,14,12,4,47,33,984,['c'],1,left,['2'],5,625,[0.11702236],98,47,medium,plus,dotcolour,beta,,,60,19,V,R,
519,15,15,12,4,27,53,1317,['n'],1,right,['2'],5,109,[-0.04494033],100,53,easy,plus,dotcolour,beta,,,60,19,V,R,
520,16,16,12,4,53,27,734,['c'],1,left,['2'],5,68,[0.08252495],100,53,easy,plus,dotcolour,beta,,,60,19,V,R,
521,17,17,12,4,44,36,1101,['n'],0,left,['2'],5,47,[-0.06330554],100,44,hard,plus,dotcolour,beta,,,60,19,V,R,
522,18,18,12,4,33,47,767,['n'],1,right,['2'],5,56,[-0.05052178],100,47,medium,plus,dotcolour,beta,,,60,19,V,R,
523,19,19,12,4,44,36,933,['c'],1,left,['2'],5,42,[0.04315973],100,44,hard,plus,dotcolour,beta,,,60,19,V,R,
524,20,20,12,4,44,36,834,['n'],0,left,['2'],5,48,[-0.07866583],100,44,hard,plus,dotcolour,beta,,,60,19,V,R,
525,21,21,12,4,44,36,1332,['c'],1,left,['2'],5,154,[0.02764126],98,44,hard,plus,dotcolour,beta,,,60,19,V,R,
526,22,22,12,4,44,36,1216,['c'],1,left,['2'],5,141,[0.08799675],100,44,hard,plus,dotcolour,beta,,,60,19,V,R,
527,23,23,12,4,33,47,834,['n'],1,right,['2'],5,55,[-0.05334682],100,47,medium,plus,dotcolour,beta,,,60,19,V,R,
528,24,24,12,4,36,44,1400,['n'],1,right,['2'],5,70,[-0.0710133],100,44,hard,plus,dotcolour,beta,,,60,19,V,R,
529,25,25,12,4,36,44,650,['n'],1,right,['2'],5,3,[-0.07486038],100,44,hard,plus,dotcolour,beta,,,60,19,V,R,
530,26,26,12,4,27,53,583,['n'],1,right,['2'],5,52,[-0.09537012],100,53,easy,plus,dotcolour,beta,,,60,19,V,R,
531,27,27,12,4,27,53,500,['n'],1,right,['2'],5,32,[-0.06656785],100,53,easy,plus,dotcolour,beta,,,60,19,V,R,
532,28,28,12,4,33,47,551,['n'],1,right,['2'],5,546,[-0.10488992],98,47,medium,plus,dotcolour,beta,,,60,19,V,R,
533,29,29,12,4,53,27,784,['c'],1,left,['2'],5,78,[0.11558952],100,53,easy,plus,dotcolour,beta,,,60,19,V,R,
534,30,30,12,4,33,47,1716,['n'],1,right,['2'],5,55,[-0.11086736],100,47,medium,plus,dotcolour,beta,,,60,19,V,R,
535,31,31,12,4,36,44,1050,['n'],1,right,['2'],5,61,[-0.07076617],100,44,hard,plus,dotcolour,beta,,,60,19,V,R,
536,32,32,12,4,47,33,867,['c'],1,left,['2'],5,65,[0.08179592],100,47,medium,plus,dotcolour,beta,,,60,19,V,R,
537,33,33,12,4,33,47,1551,['c'],0,right,['2'],5,17,[0.07516549],100,47,medium,plus,dotcolour,beta,,,60,19,V,R,
538,34,34,12,4,47,33,2201,['n'],0,left,['8'],3,194,[-0.04967153],99,47,medium,plus,dotcolour,beta,,,60,19,V,R,
539,35,35,12,4,53,27,2082,['c'],1,left,['8'],3,280,[0.13105306],100,53,easy,plus,dotcolour,beta,,,60,19,V,R,
540,36,36,12,4,36,44,2200,['c'],0,right,['8'],3,166,[0.05979403],99,44,hard,plus,dotcolour,beta,,,60,19,V,R,
541,37,37,12,4,36,44,1134,['n'],1,right,['3'],4,100,[-0.06274457],100,44,hard,plus,dotcolour,beta,,,60,19,V,R,
542,38,38,12,4,36,44,750,['n'],1,right,['2'],5,98,[-0.07538811],100,44,hard,plus,dotcolour,beta,,,60,19,V,R,
543,39,39,12,4,27,53,1034,['n'],1,right,['2'],5,71,[-0.06733992],100,53,easy,plus,dotcolour,beta,,,60,19,V,R,
544,40,40,12,4,53,27,1466,['c'],1,left,['2'],5,147,[0.0712145],100,53,easy,plus,dotcolour,beta,,,60,19,V,R,
545,41,41,12,4,33,47,883,['n'],1,right,['2'],5,59,[-0.00767983],99,47,medium,plus,dotcolour,beta,,,60,19,V,R,
546,42,0,13,4,44,36,2351,['n'],0,left,['2'],5,76,[-0.0492905],100,44,hard,plus,dotcolour,beta,,,60,19,V,R,
547,43,1,13,4,36,44,732,['n'],1,right,['2'],5,28,[-0.09141545],100,44,hard,plus,dotcolour,beta,,,60,19,V,R,
548,44,2,13,4,36,44,1983,['n'],1,right,['2'],5,37,[-0.10781703],100,44,hard,plus,dotcolour,beta,,,60,19,V,R,
549,45,3,13,4,47,33,1216,['c'],1,left,['2'],5,117,[0.06836697],100,47,medium,plus,dotcolour,beta,,,60,19,V,R,
550,46,4,13,4,27,53,717,['n'],1,right,['2'],5,493,[-0.08625046],97,53,easy,plus,dotcolour,beta,,,60,19,V,R,
551,47,5,13,4,33,47,716,['n'],1,right,['2'],5,5,[-0.08207728],100,47,medium,plus,dotcolour,beta,,,60,19,V,R,
552,48,6,13,4,53,27,667,['c'],1,left,['2'],5,68,[0.11498242],100,53,easy,plus,dotcolour,beta,,,60,19,V,R,
553,49,7,13,4,44,36,1134,['c'],1,left,['2'],5,85,[0.05222893],100,44,hard,plus,dotcolour,beta,,,60,19,V,R,
554,50,8,13,4,33,47,633,['n'],1,right,['2'],5,98,[-0.09597559],100,47,medium,plus,dotcolour,beta,,,60,19,V,R,
555,51,9,13,4,33,47,1500,['n'],1,right,['2'],5,171,[-0.11206385],100,47,medium,plus,dotcolour,beta,,,60,19,V,R,
556,52,10,13,4,53,27,599,['c'],1,left,['2'],5,38,[0.10773182],100,53,easy,plus,dotcolour,beta,,,60,19,V,R,
557,53,11,13,4,53,27,633,['c'],1,left,['2'],5,37,[0.05931465],100,53,easy,plus,dotcolour,beta,,,60,19,V,R,
558,54,12,13,4,44,36,1251,['c'],1,left,['2'],5,59,[0.02734364],100,44,hard,plus,dotcolour,beta,,,60,19,V,R,
559,55,13,13,4,33,47,783,['n'],1,right,['2'],5,82,[-0.09746883],100,47,medium,plus,dotcolour,beta,,,60,19,V,R,
560,56,14,13,4,33,47,617,['n'],1,right,['2'],5,63,[-0.08476895],100,47,medium,plus,dotcolour,beta,,,60,19,V,R,
561,57,15,13,4,27,53,500,['c'],0,right,['0'],1,986,[-0.12361514],23,53,easy,plus,dotcolour,beta,,,60,19,V,R,
562,58,16,13,4,53,27,749,['c'],1,left,['2'],5,38,[0.06669079],100,53,easy,plus,dotcolour,beta,,,60,19,V,R,
563,59,17,13,4,27,53,634,['n'],1,right,['2'],5,21,[-0.05074725],100,53,easy,plus,dotcolour,beta,,,60,19,V,R,
564,60,18,13,4,47,33,935,['c'],1,left,['2'],5,32,[0.09590243],100,47,medium,plus,dotcolour,beta,,,60,19,V,R,
565,61,19,13,4,27,53,766,['n'],1,right,['2'],5,9,[-0.07141472],100,53,easy,plus,dotcolour,beta,,,60,19,V,R,
566,62,20,13,4,33,47,566,['n'],1,right,['2'],5,35,[-0.09267696],100,47,medium,plus,dotcolour,beta,,,60,19,V,R,
567,63,21,13,4,27,53,517,['n'],1,right,['2'],5,62,[-0.11214418],100,53,easy,plus,dotcolour,beta,,,60,19,V,R,
568,64,22,13,4,44,36,683,['c'],1,left,['2'],5,82,[0.1550829],100,44,hard,plus,dotcolour,beta,,,60,19,V,R,
569,65,23,13,4,47,33,1216,['c'],1,left,['2'],5,79,[0.10681225],100,47,medium,plus,dotcolour,beta,,,60,19,V,R,
570,66,24,13,4,44,36,2317,['n'],0,left,['8'],3,96,[-0.02274998],99,44,hard,plus,dotcolour,beta,,,60,19,V,R,
571,67,25,13,4,33,47,1800,['c'],0,right,['8'],3,109,[0.08609319],100,47,medium,plus,dotcolour,beta,,,60,19,V,R,
572,68,26,13,4,36,44,1067,['n'],1,right,['2'],5,8,[-0.06873338],100,44,hard,plus,dotcolour,beta,,,60,19,V,R,
573,69,27,13,4,36,44,817,['n'],1,right,['2'],5,432,[-0.15481324],100,44,hard,plus,dotcolour,beta,,,60,19,V,R,
574,70,28,13,4,27,53,649,['n'],1,right,['2'],5,30,[-0.07742317],100,53,easy,plus,dotcolour,beta,,,60,19,V,R,
575,71,29,13,4,47,33,1033,['c'],1,left,['2'],5,29,[0.09963836],100,47,medium,plus,dotcolour,beta,,,60,19,V,R,
576,72,30,13,4,47,33,967,['c'],1,left,['2'],5,30,[0.0809116],100,47,medium,plus,dotcolour,beta,,,60,19,V,R,
577,73,31,13,4,47,33,833,['c'],1,left,['2'],5,77,[0.09510054],100,47,medium,plus,dotcolour,beta,,,60,19,V,R,
578,74,32,13,4,53,27,816,['c'],1,left,['2'],5,42,[0.04869413],100,53,easy,plus,dotcolour,beta,,,60,19,V,R,
579,75,33,13,4,27,53,817,['n'],1,right,['2'],5,129,[-0.06809448],100,53,easy,plus,dotcolour,beta,,,60,19,V,R,
580,76,34,13,4,53,27,651,['c'],1,left,['2'],5,11,[0.09095929],100,53,easy,plus,dotcolour,beta,,,60,19,V,R,
581,77,35,13,4,36,44,1268,['n'],1,right,['2'],5,25,[-0.0679363],100,44,hard,plus,dotcolour,beta,,,60,19,V,R,
582,78,36,13,4,36,44,600,['n'],1,right,['2'],5,25,[-0.0777474],100,44,hard,plus,dotcolour,beta,,,60,19,V,R,
583,79,37,13,4,36,44,1267,['n'],1,right,['2'],5,22,[-0.04685122],100,44,hard,plus,dotcolour,beta,,,60,19,V,R,
584,80,38,13,4,53,27,600,['c'],1,left,['2'],5,47,[0.06860472],100,53,easy,plus,dotcolour,beta,,,60,19,V,R,
585,81,39,13,4,47,33,966,['c'],1,left,['2'],5,751,[0.13658179],98,47,medium,plus,dotcolour,beta,,,60,19,V,R,
586,82,40,13,4,44,36,783,['c'],1,left,['2'],5,27,[0.08659736],100,44,hard,plus,dotcolour,beta,,,60,19,V,R,
587,83,41,13,4,44,36,483,['c'],1,left,['2'],5,32,[0.06779515],100,44,hard,plus,dotcolour,beta,,,60,19,V,R,
588,84,0,14,4,53,27,751,['c'],1,left,['2'],5,21,[0.06289854],100,53,easy,plus,dotcolour,beta,,,60,19,V,R,
589,85,1,14,4,36,44,984,['n'],1,right,['2'],5,54,[-0.04979333],100,44,hard,plus,dotcolour,beta,,,60,19,V,R,
590,86,2,14,4,33,47,617,['n'],1,right,['2'],5,77,[-0.09051364],100,47,medium,plus,dotcolour,beta,,,60,19,V,R,
591,87,3,14,4,36,44,1468,['n'],1,right,['2'],5,9,[-0.06803659],100,44,hard,plus,dotcolour,beta,,,60,19,V,R,
592,88,4,14,4,36,44,983,['n'],1,right,['2'],5,74,[-0.056249],100,44,hard,plus,dotcolour,beta,,,60,19,V,R,
593,89,5,14,4,27,53,566,['n'],1,right,['2'],5,57,[-0.10821275],100,53,easy,plus,dotcolour,beta,,,60,19,V,R,
594,90,6,14,4,33,47,534,['n'],1,right,['2'],5,26,[-0.05701132],100,47,medium,plus,dotcolour,beta,,,60,19,V,R,
595,91,7,14,4,36,44,616,['n'],1,right,['2'],5,26,[-0.05059744],100,44,hard,plus,dotcolour,beta,,,60,19,V,R,
596,92,8,14,4,44,36,600,['n'],0,left,['2'],5,2,[-0.06472298],100,44,hard,plus,dotcolour,beta,,,60,19,V,R,
597,93,9,14,4,53,27,866,['c'],1,left,['2'],5,17,[0.09874531],100,53,easy,plus,dotcolour,beta,,,60,19,V,R,
598,94,10,14,4,47,33,700,['c'],1,left,['2'],5,53,[0.03999623],100,47,medium,plus,dotcolour,beta,,,60,19,V,R,
599,95,11,14,4,27,53,650,['n'],1,right,['2'],5,83,[-0.1122349],100,53,easy,plus,dotcolour,beta,,,60,19,V,R,
600,96,12,14,4,53,27,1351,['c'],1,left,['2'],5,579,[0.26020176],100,53,easy,plus,dotcolour,beta,,,60,19,V,R,
601,97,13,14,4,53,27,633,['c'],1,left,['2'],5,20,[0.0655324],100,53,easy,plus,dotcolour,beta,,,60,19,V,R,
602,98,14,14,4,33,47,950,['n'],1,right,['2'],5,86,[-0.1169666],100,47,medium,plus,dotcolour,beta,,,60,19,V,R,
603,99,15,14,4,27,53,750,['n'],1,right,['2'],5,14,[-0.06389838],100,53,easy,plus,dotcolour,beta,,,60,19,V,R,
604,100,16,14,4,53,27,866,['c'],1,left,['2'],5,20,[0.07134828],100,53,easy,plus,dotcolour,beta,,,60,19,V,R,
605,101,17,14,4,53,27,883,['c'],1,left,['2'],5,26,[0.07066102],100,53,easy,plus,dotcolour,beta,,,60,19,V,R,
606,102,18,14,4,44,36,667,['c'],1,left,['2'],5,31,[0.0522596],100,44,hard,plus,dotcolour,beta,,,60,19,V,R,
607,103,19,14,4,53,27,617,['c'],1,left,['2'],5,126,[0.06980173],100,53,easy,plus,dotcolour,beta,,,60,19,V,R,
608,104,20,14,4,27,53,534,['n'],1,right,['2'],5,85,[-0.11650124],100,53,easy,plus,dotcolour,beta,,,60,19,V,R,
609,105,21,14,4,36,44,867,['n'],1,right,['2'],5,456,[-0.03897305],93,44,hard,plus,dotcolour,beta,,,60,19,V,R,
610,106,22,14,4,27,53,616,['n'],1,right,['2'],5,502,[-0.18785261],100,53,easy,plus,dotcolour,beta,,,60,19,V,R,
611,107,23,14,4,44,36,933,['n'],0,left,['2'],5,38,[-0.07353786],100,44,hard,plus,dotcolour,beta,,,60,19,V,R,
612,108,24,14,4,44,36,584,['c'],1,left,['2'],5,39,[0.0404839],100,44,hard,plus,dotcolour,beta,,,60,19,V,R,
613,109,25,14,4,47,33,733,['c'],1,left,['2'],5,66,[0.0515282],100,47,medium,plus,dotcolour,beta,,,60,19,V,R,
614,110,26,14,4,47,33,534,['c'],1,left,['2'],5,491,[0.21013791],100,47,medium,plus,dotcolour,beta,,,60,19,V,R,
615,111,27,14,4,44,36,1434,['n'],0,left,['2'],5,47,[-0.05586378],100,44,hard,plus,dotcolour,beta,,,60,19,V,R,
616,112,28,14,4,36,44,801,['n'],1,right,['2'],5,54,[-0.04761162],100,44,hard,plus,dotcolour,beta,,,60,19,V,R,
617,113,29,14,4,27,53,617,['c'],0,right,['0'],1,909,[-0.13362115],19,53,easy,plus,dotcolour,beta,,,60,19,V,R,
618,114,30,14,4,47,33,1450,['c'],1,left,['2'],5,24,[0.06750403],100,47,medium,plus,dotcolour,beta,,,60,19,V,R,
619,115,31,14,4,33,47,718,['n'],1,right,['2'],5,28,[-0.0527798],100,47,medium,plus,dotcolour,beta,,,60,19,V,R,
620,116,32,14,4,36,44,634,['n'],1,right,['2'],5,34,[-0.05271323],100,44,hard,plus,dotcolour,beta,,,60,19,V,R,
621,117,33,14,4,47,33,551,['c'],1,left,['2'],5,92,[0.07886742],100,47,medium,plus,dotcolour,beta,,,60,19,V,R,
622,118,34,14,4,27,53,467,['n'],1,right,['2'],5,23,[-0.0365005],100,53,easy,plus,dotcolour,beta,,,60,19,V,R,
623,119,35,14,4,47,33,551,['c'],1,left,['2'],5,66,[0.09927835],100,47,medium,plus,dotcolour,beta,,,60,19,V,R,
624,120,36,14,4,44,36,451,['c'],1,left,['2'],5,111,[0.06261145],100,44,hard,plus,dotcolour,beta,,,60,19,V,R,
625,121,37,14,4,44,36,1300,['c'],1,left,['2'],5,87,[0.10737004],100,44,hard,plus,dotcolour,beta,,,60,19,V,R,
626,122,38,14,4,47,33,1333,['c'],1,left,['2'],5,72,[0.07813874],100,47,medium,plus,dotcolour,beta,,,60,19,V,R,
627,123,39,14,4,33,47,600,['c'],0,right,['2'],5,542,[-0.14986726],9,47,medium,plus,dotcolour,beta,,,60,19,V,R,
628,124,40,14,4,33,47,1217,['n'],1,right,['2'],5,65,[-0.10672747],100,47,medium,plus,dotcolour,beta,,,60,19,V,R,
629,125,41,14,4,33,47,2233,['n'],1,right,['8'],3,95,[-0.06048773],100,47,medium,plus,dotcolour,beta,,,60,19,V,R,
630,0,0,15,5,44,36,967,['n'],0,left,['2'],5,25,[-0.06197575],67,44,hard,minus,dotcolour,beta,,,60,19,V,R,
631,1,1,15,5,53,27,2267,['c'],1,left,['2'],5,30,[0.07598887],89,53,easy,minus,dotcolour,beta,,,60,19,V,R,
632,2,2,15,5,27,53,1283,['n'],1,right,['2'],5,139,[-0.08818272],83,53,easy,minus,dotcolour,beta,,,60,19,V,R,
633,3,3,15,5,44,36,867,['c'],1,left,['2'],5,68,[0.06610452],67,44,hard,minus,dotcolour,beta,,,60,19,V,R,
634,4,4,15,5,27,53,884,['n'],1,right,['2'],5,47,[-0.09285265],96,53,easy,minus,dotcolour,beta,,,60,19,V,R,
635,5,5,15,5,44,36,1134,['c'],1,left,['2'],5,98,[0.1194074],98,44,hard,minus,dotcolour,beta,,,60,19,V,R,
636,6,6,15,5,33,47,900,['n'],1,right,['2'],5,75,[-0.08954575],90,47,medium,minus,dotcolour,beta,,,60,19,V,R,
637,7,7,15,5,36,44,851,['c'],0,right,['2'],5,55,[0.04610648],33,44,hard,minus,dotcolour,beta,,,60,19,V,R,
638,8,8,15,5,47,33,1434,['c'],1,left,['2'],5,53,[0.10259701],98,47,medium,minus,dotcolour,beta,,,60,19,V,R,
639,9,9,15,5,33,47,833,['n'],1,right,['2'],5,59,[-0.09531019],95,47,medium,minus,dotcolour,beta,,,60,19,V,R,
640,10,10,15,5,53,27,616,['c'],1,left,['2'],5,65,[0.0527908],45,53,easy,minus,dotcolour,beta,,,60,19,V,R,
641,11,11,15,5,33,47,899,['n'],1,right,['2'],5,92,[-0.0285159],17,47,medium,minus,dotcolour,beta,,,60,19,V,R,
642,12,12,15,5,53,27,800,['c'],1,left,['2'],5,121,[0.02751303],19,53,easy,minus,dotcolour,beta,,,60,19,V,R,
643,13,13,15,5,47,33,767,['c'],1,left,['2'],5,63,[0.05120778],42,47,medium,minus,dotcolour,beta,,,60,19,V,R,
644,14,14,15,5,27,53,1134,['n'],1,right,['2'],5,32,[-0.08128856],93,53,easy,minus,dotcolour,beta,,,60,19,V,R,
645,15,15,15,5,36,44,768,['n'],1,right,['2'],5,130,[-0.07952106],77,44,hard,minus,dotcolour,beta,,,60,19,V,R,
646,16,16,15,5,27,53,617,['n'],1,right,['2'],5,29,[-0.07306709],86,53,easy,minus,dotcolour,beta,,,60,19,V,R,
647,17,17,15,5,44,36,650,['c'],1,left,['2'],5,3,[0.08389686],100,44,hard,minus,dotcolour,beta,,,60,19,V,R,
648,18,18,15,5,36,44,917,['n'],1,right,['0'],1,944,[-0.2100596],95,44,hard,minus,dotcolour,beta,,,60,19,V,R,
649,19,19,15,5,53,27,800,['c'],1,left,['2'],5,83,[0.0335663],20,53,easy,minus,dotcolour,beta,,,60,19,V,R,
650,20,20,15,5,47,33,1317,['c'],1,left,['2'],5,549,[0.12638991],85,47,medium,minus,dotcolour,beta,,,60,19,V,R,
651,21,21,15,5,44,36,783,['c'],1,left,['2'],5,41,[0.07556616],86,44,hard,minus,dotcolour,beta,,,60,19,V,R,
652,22,22,15,5,36,44,1233,['n'],1,right,['9'],2,135,[-0.07093286],68,44,hard,minus,dotcolour,beta,,,60,19,V,R,
653,23,23,15,5,44,36,1417,['c'],1,left,['2'],5,130,[0.08847632],84,44,hard,minus,dotcolour,beta,,,60,19,V,R,
654,24,24,15,5,47,33,1199,['n'],0,left,['9'],2,966,[0.02763067],18,47,medium,minus,dotcolour,beta,,,60,19,V,R,
655,25,25,15,5,33,47,716,['n'],1,right,['8'],3,132,[-0.17343544],100,47,medium,minus,dotcolour,beta,,,60,19,V,R,
656,26,26,15,5,27,53,667,['n'],1,right,['8'],3,85,[-0.07924471],81,53,easy,minus,dotcolour,beta,,,60,19,V,R,
657,27,27,15,5,27,53,1434,['n'],1,right,['1'],6,107,[-0.13853305],99,53,easy,minus,dotcolour,beta,,,60,19,V,R,
658,28,28,15,5,36,44,600,['n'],1,right,['1'],6,72,[-0.06068061],59,44,hard,minus,dotcolour,beta,,,60,19,V,R,
659,29,29,15,5,33,47,783,['n'],1,right,['2'],5,15,[-0.06914753],88,47,medium,minus,dotcolour,beta,,,60,19,V,R,
660,30,30,15,5,47,33,1034,['c'],1,left,['2'],5,119,[0.04065748],31,47,medium,minus,dotcolour,beta,,,60,19,V,R,
661,31,31,15,5,47,33,683,['c'],1,left,['2'],5,80,[0.11089161],97,47,medium,minus,dotcolour,beta,,,60,19,V,R,
662,32,32,15,5,36,44,633,['n'],1,right,['2'],5,101,[-0.04869081],40,44,hard,minus,dotcolour,beta,,,60,19,V,R,
663,33,33,15,5,33,47,517,['n'],1,right,['2'],5,61,[-0.10973507],98,47,medium,minus,dotcolour,beta,,,60,19,V,R,
664,34,34,15,5,36,44,650,['n'],1,right,['2'],5,42,[-0.06815178],75,44,hard,minus,dotcolour,beta,,,60,19,V,R,
665,35,35,15,5,53,27,817,['c'],1,left,['1'],6,72,[0.08443627],87,53,easy,minus,dotcolour,beta,,,60,19,V,R,
666,36,36,15,5,33,47,649,['n'],1,right,['1'],6,77,[-0.09835237],94,47,medium,minus,dotcolour,beta,,,60,19,V,R,
667,37,37,15,5,53,27,650,['n'],0,left,['1'],6,98,[-0.05887249],55,53,easy,minus,dotcolour,beta,,,60,19,V,R,
668,38,38,15,5,47,33,1083,['n'],0,left,['1'],6,107,[-0.01989267],12,47,medium,minus,dotcolour,beta,,,60,19,V,R,
669,39,39,15,5,53,27,700,['n'],0,left,['1'],6,116,[-0.01470825],10,53,easy,minus,dotcolour,beta,,,60,19,V,R,
670,40,40,15,5,44,36,1734,['c'],1,left,['1'],6,155,[0.08572294],80,44,hard,minus,dotcolour,beta,,,60,19,V,R,
671,41,41,15,5,27,53,985,['n'],1,right,['1'],6,63,[-0.1056857],97,53,easy,minus,dotcolour,beta,,,60,19,V,R,
672,42,0,16,5,27,53,701,['n'],1,right,['1'],6,133,[-0.04772539],40,53,easy,minus,dotcolour,beta,,,60,19,V,R,
673,43,1,16,5,53,27,1032,['c'],1,left,['1'],6,64,[0.0713037],75,53,easy,minus,dotcolour,beta,,,60,19,V,R,
674,44,2,16,5,36,44,701,['n'],1,right,['1'],6,1115,[0.13603348],4,44,hard,minus,dotcolour,beta,,,60,19,V,R,
675,45,3,16,5,44,36,950,['c'],1,left,['1'],6,65,[0.08087962],86,44,hard,minus,dotcolour,beta,,,60,19,V,R,
676,46,4,16,5,27,53,934,['n'],1,right,['1'],6,59,[-0.10749301],98,53,easy,minus,dotcolour,beta,,,60,19,V,R,
677,47,5,16,5,44,36,1400,['c'],1,left,['8'],3,121,[0.05803349],53,44,hard,minus,dotcolour,beta,,,60,19,V,R,
678,48,6,16,5,36,44,1300,['n'],1,right,['8'],3,98,[-0.06714595],66,44,hard,minus,dotcolour,beta,,,60,19,V,R,
679,49,7,16,5,53,27,850,['c'],1,left,['1'],6,94,[0.07179738],72,53,easy,minus,dotcolour,beta,,,60,19,V,R,
680,50,8,16,5,47,33,2167,['n'],0,left,['8'],3,116,[-0.09439408],89,47,medium,minus,dotcolour,beta,,,60,19,V,R,
681,51,9,16,5,33,47,832,['c'],0,right,['1'],6,24,[0.03623993],10,47,medium,minus,dotcolour,beta,,,60,19,V,R,
682,52,10,16,5,53,27,951,['c'],1,left,['1'],6,2,[0.07593798],100,53,easy,minus,dotcolour,beta,,,60,19,V,R,
683,53,11,16,5,47,33,483,['c'],1,left,['1'],6,8,[0.07506702],98,47,medium,minus,dotcolour,beta,,,60,19,V,R,
684,54,12,16,5,53,27,717,['c'],1,left,['1'],6,36,[0.07071513],81,53,easy,minus,dotcolour,beta,,,60,19,V,R,
685,55,13,16,5,47,33,734,['c'],1,left,['1'],6,79,[0.06033508],58,47,medium,minus,dotcolour,beta,,,60,19,V,R,
686,56,14,16,5,44,36,684,['c'],1,left,['1'],6,57,[0.08959106],93,44,hard,minus,dotcolour,beta,,,60,19,V,R,
687,57,15,16,5,33,47,901,['n'],1,right,['1'],6,44,[-0.03656647],16,47,medium,minus,dotcolour,beta,,,60,19,V,R,
688,58,16,16,5,36,44,666,['n'],1,right,['1'],6,89,[0.01593189],1,44,hard,minus,dotcolour,beta,,,60,19,V,R,
689,59,17,16,5,47,33,984,['n'],0,left,['1'],6,56,[-0.0759509],83,47,medium,minus,dotcolour,beta,,,60,19,V,R,
690,60,18,16,5,27,53,684,['n'],1,right,['1'],6,508,[-0.20444709],98,53,easy,minus,dotcolour,beta,,,60,19,V,R,
691,61,19,16,5,47,33,967,['c'],1,left,['3'],4,50,[0.10189746],98,47,medium,minus,dotcolour,beta,,,60,19,V,R,
692,62,20,16,5,36,44,1266,['c'],0,right,['2'],5,190,[0.08665899],78,44,hard,minus,dotcolour,beta,,,60,19,V,R,
693,63,21,16,5,44,36,1600,['c'],1,left,['2'],5,47,[0.06844086],74,44,hard,minus,dotcolour,beta,,,60,19,V,R,
694,64,22,16,5,27,53,1434,['n'],1,right,['2'],5,150,[-0.16999952],100,53,easy,minus,dotcolour,beta,,,60,19,V,R,
695,65,23,16,5,33,47,567,['n'],1,right,['2'],5,18,[-0.07260706],91,47,medium,minus,dotcolour,beta,,,60,19,V,R,
696,66,24,16,5,44,36,516,['n'],0,left,['2'],5,39,[-0.07291427],83,44,hard,minus,dotcolour,beta,,,60,19,V,R,
697,67,25,16,5,44,36,566,['n'],0,left,['2'],5,96,[-0.06093824],58,44,hard,minus,dotcolour,beta,,,60,19,V,R,
698,68,26,16,5,33,47,833,['n'],1,right,['2'],5,44,[-0.08175597],90,47,medium,minus,dotcolour,beta,,,60,19,V,R,
699,69,27,16,5,47,33,816,['n'],0,left,['2'],5,43,[-0.06188981],63,47,medium,minus,dotcolour,beta,,,60,19,V,R,
700,70,28,16,5,36,44,583,['n'],1,right,['2'],5,26,[-0.09835246],99,44,hard,minus,dotcolour,beta,,,60,19,V,R,
701,71,29,16,5,27,53,466,['n'],1,right,['2'],5,1,[-0.0747584],100,53,easy,minus,dotcolour,beta,,,60,19,V,R,
702,72,30,16,5,44,36,684,['c'],1,left,['1'],6,6,[0.07081465],97,44,hard,minus,dotcolour,beta,,,60,19,V,R,
703,73,31,16,5,53,27,700,['c'],1,left,['2'],5,531,[0.05084916],47,53,easy,minus,dotcolour,beta,,,60,19,V,R,
704,74,32,16,5,47,33,583,['c'],1,left,['2'],5,32,[0.08298233],94,47,medium,minus,dotcolour,beta,,,60,19,V,R,
705,75,33,16,5,27,53,584,['n'],1,right,['2'],5,49,[-0.08868734],94,53,easy,minus,dotcolour,beta,,,60,19,V,R,
706,76,34,16,5,53,27,651,['c'],1,left,['2'],5,22,[0.08171579],96,53,easy,minus,dotcolour,beta,,,60,19,V,R,
707,77,35,16,5,53,27,551,['c'],1,left,['2'],5,17,[0.09435045],100,53,easy,minus,dotcolour,beta,,,60,19,V,R,
708,78,36,16,5,33,47,716,['n'],1,right,['2'],5,477,[-0.06506829],56,47,medium,minus,dotcolour,beta,,,60,19,V,R,
709,79,37,16,5,33,47,567,['n'],1,right,['2'],5,28,[-0.0792236],93,47,medium,minus,dotcolour,beta,,,60,19,V,R,
710,80,38,16,5,36,44,751,['c'],0,right,['2'],5,574,[0.0736984],61,44,hard,minus,dotcolour,beta,,,60,19,V,R,
711,81,39,16,5,33,47,533,['n'],1,right,['2'],5,67,[-0.05766184],54,47,medium,minus,dotcolour,beta,,,60,19,V,R,
712,82,40,16,5,36,44,650,['n'],1,right,['2'],5,56,[-0.12420801],99,44,hard,minus,dotcolour,beta,,,60,19,V,R,
713,83,41,16,5,27,53,466,['n'],1,right,['2'],5,28,[-0.04627927],27,53,easy,minus,dotcolour,beta,,,60,19,V,R,
714,84,0,17,5,44,36,1668,['c'],1,left,['2'],5,10,[0.06436166],83,44,hard,minus,dotcolour,beta,,,60,19,V,R,
715,85,1,17,5,44,36,850,['c'],1,left,['2'],5,121,[0.04289493],34,44,hard,minus,dotcolour,beta,,,60,19,V,R,
716,86,2,17,5,53,27,884,['c'],1,left,['2'],5,466,[0.15958305],94,53,easy,minus,dotcolour,beta,,,60,19,V,R,
717,87,3,17,5,44,36,733,['n'],0,left,['2'],5,36,[-0.07881477],90,44,hard,minus,dotcolour,beta,,,60,19,V,R,
718,88,4,17,5,53,27,516,['c'],1,left,['2'],5,55,[0.08294546],89,53,easy,minus,dotcolour,beta,,,60,19,V,R,
719,89,5,17,5,44,36,450,['c'],1,left,['2'],5,13,[0.08247061],99,44,hard,minus,dotcolour,beta,,,60,19,V,R,
720,90,6,17,5,33,47,916,['n'],1,right,['2'],5,88,[-0.08525742],86,47,medium,minus,dotcolour,beta,,,60,19,V,R,
721,91,7,17,5,27,53,466,['n'],1,right,['2'],5,60,[-0.07065948],75,53,easy,minus,dotcolour,beta,,,60,19,V,R,
722,92,8,17,5,53,27,667,['c'],1,left,['2'],5,48,[0.06988073],76,53,easy,minus,dotcolour,beta,,,60,19,V,R,
723,93,9,17,5,44,36,534,['n'],0,left,['2'],5,50,[-0.02430187],7,44,hard,minus,dotcolour,beta,,,60,19,V,R,
724,94,10,17,5,27,53,683,['n'],1,right,['2'],5,6,[-0.07104874],97,53,easy,minus,dotcolour,beta,,,60,19,V,R,
725,95,11,17,5,36,44,517,['n'],1,right,['2'],5,35,[-0.05955056],59,44,hard,minus,dotcolour,beta,,,60,19,V,R,
726,96,12,17,5,36,44,650,['n'],1,right,['2'],5,25,[-0.06767507],80,44,hard,minus,dotcolour,beta,,,60,19,V,R,
727,97,13,17,5,33,47,517,['n'],1,right,['2'],5,140,[-0.11391158],94,47,medium,minus,dotcolour,beta,,,60,19,V,R,
728,98,14,17,5,47,33,467,['n'],0,left,['2'],5,45,[-0.05928907],58,47,medium,minus,dotcolour,beta,,,60,19,V,R,
729,99,15,17,5,33,47,817,['n'],1,right,['2'],5,60,[-0.05277305],45,47,medium,minus,dotcolour,beta,,,60,19,V,R,
730,100,16,17,5,53,27,716,['c'],1,left,['2'],5,125,[0.09300861],87,53,easy,minus,dotcolour,beta,,,60,19,V,R,
731,101,17,17,5,47,33,1133,['c'],1,left,['2'],5,28,[0.05438471],47,47,medium,minus,dotcolour,beta,,,60,19,V,R,
732,102,18,17,5,33,47,667,['n'],1,right,['2'],5,65,[-0.11551156],99,47,medium,minus,dotcolour,beta,,,60,19,V,R,
733,103,19,17,5,27,53,567,['n'],1,right,['2'],5,33,[-0.09057532],97,53,easy,minus,dotcolour,beta,,,60,19,V,R,
734,104,20,17,5,33,47,516,['n'],1,right,['2'],5,53,[-0.09805284],97,47,medium,minus,dotcolour,beta,,,60,19,V,R,
735,105,21,17,5,47,33,733,['c'],1,left,['2'],5,71,[0.12843174],99,47,medium,minus,dotcolour,beta,,,60,19,V,R,
736,106,22,17,5,47,33,900,['c'],1,left,['2'],5,57,[0.0578051],54,47,medium,minus,dotcolour,beta,,,60,19,V,R,
737,107,23,17,5,33,47,1050,['n'],1,right,['2'],5,14,[-0.09179518],100,47,medium,minus,dotcolour,beta,,,60,19,V,R,
738,108,24,17,5,33,47,700,['n'],1,right,['2'],5,59,[-0.07198488],77,47,medium,minus,dotcolour,beta,,,60,19,V,R,
739,109,25,17,5,27,53,650,['n'],1,right,['2'],5,431,[-0.00891782],22,53,easy,minus,dotcolour,beta,,,60,19,V,R,
740,110,26,17,5,36,44,666,['n'],1,right,['2'],5,61,[-0.12915347],100,44,hard,minus,dotcolour,beta,,,60,19,V,R,
741,111,27,17,5,44,36,967,['c'],1,left,['2'],5,125,[0.09163737],86,44,hard,minus,dotcolour,beta,,,60,19,V,R,
742,112,28,17,5,53,27,1100,['c'],1,left,['2'],5,69,[0.05680097],52,53,easy,minus,dotcolour,beta,,,60,19,V,R,
743,113,29,17,5,36,44,583,['n'],1,right,['2'],5,60,[-0.08856361],92,44,hard,minus,dotcolour,beta,,,60,19,V,R,
744,114,30,17,5,53,27,966,['c'],1,left,['2'],5,13,[0.08559568],99,53,easy,minus,dotcolour,beta,,,60,19,V,R,
745,115,31,17,5,47,33,1133,['c'],1,left,['2'],5,80,[0.10015534],94,47,medium,minus,dotcolour,beta,,,60,19,V,R,
746,116,32,17,5,36,44,1584,['c'],0,right,['2'],5,86,[0.07683248],79,44,hard,minus,dotcolour,beta,,,60,19,V,R,
747,117,33,17,5,27,53,817,['n'],1,right,['2'],5,76,[-0.05692312],52,53,easy,minus,dotcolour,beta,,,60,19,V,R,
748,118,34,17,5,53,27,817,['c'],1,left,['2'],5,34,[0.08899386],96,53,easy,minus,dotcolour,beta,,,60,19,V,R,
749,119,35,17,5,47,33,567,['c'],1,left,['2'],5,43,[0.08477899],93,47,medium,minus,dotcolour,beta,,,60,19,V,R,
750,120,36,17,5,44,36,666,['c'],1,left,['2'],5,55,[0.09540384],96,44,hard,minus,dotcolour,beta,,,60,19,V,R,
751,121,37,17,5,27,53,800,['n'],1,right,['2'],5,79,[-0.10138329],95,53,easy,minus,dotcolour,beta,,,60,19,V,R,
752,122,38,17,5,27,53,583,['n'],1,right,['2'],5,30,[-0.07499607],88,53,easy,minus,dotcolour,beta,,,60,19,V,R,
753,123,39,17,5,47,33,650,['c'],1,left,['2'],5,44,[0.08858533],94,47,medium,minus,dotcolour,beta,,,60,19,V,R,
754,124,40,17,5,36,44,1116,['n'],1,right,['2'],5,70,[-0.07992409],84,44,hard,minus,dotcolour,beta,,,60,19,V,R,
755,125,41,17,5,36,44,450,['c'],0,right,['2'],5,34,[0.10589398],99,44,hard,minus,dotcolour,beta,,,60,19,V,R,
,,,,,,,,,,,,,,,,,,,,,1,ik denk dat de gemiddeldes niet echt waren,60,19,V,R,
,,,,,,,,,,,,,,,,,,,,,2,['d'],60,19,V,R,
,,,,,,,,,,,,,,,,,,,,,3,['d'],60,19,V,R,
,,,,,,,,,,,,,,,,,,,,,5,['5'],60,19,V,R,
