trial,withinphasetrial,withinblocktrial,block,phase,dotsLeft,dotsRight,rt,resp,cor,cresp,conf_press,cj,RTconf,ev,fb,diff,difflevel,condition,task,manip,questionID,questionResp,sub,age,gender,handedness,
0,0,0,0,0,53,27,899,['c'],1,left,['0'],6,2074,[0.45929693],95,53,easy,minus,dotcolour,alfa,,,75,18,V,R,
1,1,1,0,0,47,33,1715,['c'],1,left,['8'],4,1354,[0.51288549],98,47,medium,minus,dotcolour,alfa,,,75,18,V,R,
2,2,2,0,0,47,33,1300,['n'],0,left,['8'],4,657,[0.00788542],48,47,medium,minus,dotcolour,alfa,,,75,18,V,R,
3,3,3,0,0,44,36,1165,['c'],1,left,['9'],5,1241,[0.21696047],85,44,hard,minus,dotcolour,alfa,,,75,18,V,R,
4,4,4,0,0,27,53,765,['n'],1,right,['8'],4,1202,[-0.26595708],90,53,easy,minus,dotcolour,alfa,,,75,18,V,R,
5,5,5,0,0,53,27,1166,['c'],1,left,['9'],5,2020,[0.32046665],88,53,easy,minus,dotcolour,alfa,,,75,18,V,R,
6,6,6,0,0,47,33,1649,['c'],1,left,['8'],4,650,[0.15116665],84,47,medium,minus,dotcolour,alfa,,,75,18,V,R,
7,7,7,0,0,33,47,2049,['n'],1,right,['3'],3,214,[-0.08726506],85,47,medium,minus,dotcolour,alfa,,,75,18,V,R,
8,8,8,0,0,36,44,949,['n'],1,right,['3'],3,249,[-0.0659694],77,44,hard,minus,dotcolour,alfa,,,75,18,V,R,
9,9,9,0,0,47,33,715,['c'],1,left,['8'],4,699,[0.10774308],76,47,medium,minus,dotcolour,alfa,,,75,18,V,R,
10,10,10,0,0,47,33,766,['n'],0,left,['9'],5,969,[0.08267592],32,47,medium,minus,dotcolour,alfa,,,75,18,V,R,
11,11,11,0,0,36,44,1082,['c'],0,right,['3'],3,544,[0.10682909],79,44,hard,minus,dotcolour,alfa,,,75,18,V,R,
12,12,12,0,0,36,44,665,['n'],1,right,['8'],4,409,[-0.16890173],92,44,hard,minus,dotcolour,alfa,,,75,18,V,R,
13,13,13,0,0,33,47,899,['n'],1,right,['9'],5,1006,[-0.16810969],82,47,medium,minus,dotcolour,alfa,,,75,18,V,R,
14,14,14,0,0,53,27,815,['c'],1,left,['9'],5,213,[0.05631932],75,53,easy,minus,dotcolour,alfa,,,75,18,V,R,
15,15,15,0,0,33,47,616,['n'],1,right,['9'],5,717,[-0.1753833],87,47,medium,minus,dotcolour,alfa,,,75,18,V,R,
16,16,16,0,0,53,27,666,['c'],1,left,['9'],5,263,[-0.00024976],50,53,easy,minus,dotcolour,alfa,,,75,18,V,R,
17,17,17,0,0,33,47,582,['n'],1,right,['9'],5,1070,[-0.3948551],97,47,medium,minus,dotcolour,alfa,,,75,18,V,R,
18,18,18,0,0,27,53,832,['n'],1,right,['2'],2,995,[-0.28024607],93,53,easy,minus,dotcolour,alfa,,,75,18,V,R,
19,19,19,0,0,44,36,899,['c'],1,left,['9'],5,120,[0.14428846],98,44,hard,minus,dotcolour,alfa,,,75,18,V,R,
20,20,20,0,0,53,27,716,['c'],1,left,['8'],4,856,[0.23508065],91,53,easy,minus,dotcolour,alfa,,,75,18,V,R,
21,21,21,0,0,53,27,932,['c'],1,left,['8'],4,113,[0.11421103],96,53,easy,minus,dotcolour,alfa,,,75,18,V,R,
22,22,22,0,0,27,53,616,['n'],1,right,['8'],4,557,[-0.14133097],85,53,easy,minus,dotcolour,alfa,,,75,18,V,R,
23,23,23,0,0,33,47,715,['n'],1,right,['8'],4,211,[-0.05258436],74,47,medium,minus,dotcolour,alfa,,,75,18,V,R,
24,24,24,0,0,47,33,599,['c'],1,left,['9'],5,612,[0.2213916],93,47,medium,minus,dotcolour,alfa,,,75,18,V,R,
25,25,25,0,0,47,33,715,['c'],1,left,['9'],5,264,[0.17948577],96,47,medium,minus,dotcolour,alfa,,,75,18,V,R,
26,26,26,0,0,33,47,732,['n'],1,right,['9'],5,473,[-0.04990644],66,47,medium,minus,dotcolour,alfa,,,75,18,V,R,
27,27,27,0,0,36,44,816,['c'],0,right,['8'],4,1343,[0.0344641],57,44,hard,minus,dotcolour,alfa,,,75,18,V,R,
28,28,28,0,0,33,47,631,['n'],1,right,['3'],3,769,[0.06732976],33,47,medium,minus,dotcolour,alfa,,,75,18,V,R,
29,29,29,0,0,27,53,749,['n'],1,right,['9'],5,420,[-0.10913947],82,53,easy,minus,dotcolour,alfa,,,75,18,V,R,
30,30,30,0,0,44,36,1199,['n'],0,left,['8'],4,372,[-0.19714801],95,44,hard,minus,dotcolour,alfa,,,75,18,V,R,
31,31,31,0,0,36,44,1248,['c'],0,right,['8'],4,486,[-0.03220984],40,44,hard,minus,dotcolour,alfa,,,75,18,V,R,
32,32,32,0,0,44,36,833,['c'],1,left,['8'],4,497,[0.02090277],57,44,hard,minus,dotcolour,alfa,,,75,18,V,R,
33,33,33,0,0,27,53,550,['n'],1,right,['1'],1,440,[-0.16947183],91,53,easy,minus,dotcolour,alfa,,,75,18,V,R,
34,34,34,0,0,27,53,565,['n'],1,right,['0'],6,257,[-0.13399225],92,53,easy,minus,dotcolour,alfa,,,75,18,V,R,
35,35,35,0,0,44,36,748,['c'],1,left,['0'],6,178,[0.14462979],96,44,hard,minus,dotcolour,alfa,,,75,18,V,R,
36,36,36,0,0,44,36,1416,['c'],1,left,['8'],4,299,[0.0388932],65,44,hard,minus,dotcolour,alfa,,,75,18,V,R,
37,37,37,0,0,27,53,482,['n'],1,right,['0'],6,197,[-0.02549921],63,53,easy,minus,dotcolour,alfa,,,75,18,V,R,
38,38,38,0,0,36,44,782,['n'],1,right,['0'],6,150,[-0.09863638],91,44,hard,minus,dotcolour,alfa,,,75,18,V,R,
39,39,39,0,0,44,36,582,['c'],1,left,['0'],6,163,[0.11608526],93,44,hard,minus,dotcolour,alfa,,,75,18,V,R,
40,40,40,0,0,36,44,748,['n'],1,right,['0'],6,159,[-0.05460281],77,44,hard,minus,dotcolour,alfa,,,75,18,V,R,
41,41,41,0,0,53,27,747,['c'],1,left,['0'],6,283,[0.06017997],73,53,easy,minus,dotcolour,alfa,,,75,18,V,R,
42,42,0,1,0,47,33,799,['c'],1,left,['9'],5,170,[-0.00730227],46,47,medium,minus,dotcolour,alfa,,,75,18,V,R,
43,43,1,1,0,44,36,697,['c'],1,left,['9'],5,192,[0.09655063],88,44,hard,minus,dotcolour,alfa,,,75,18,V,R,
44,44,2,1,0,47,33,899,['n'],0,left,['2'],2,293,[-0.04286307],67,47,medium,minus,dotcolour,alfa,,,75,18,V,R,
45,45,3,1,0,44,36,698,['c'],1,left,['9'],5,158,[0.18549175],99,44,hard,minus,dotcolour,alfa,,,75,18,V,R,
46,46,4,1,0,47,33,847,['c'],1,left,['0'],6,343,[0.0700316],75,47,medium,minus,dotcolour,alfa,,,75,18,V,R,
47,47,5,1,0,33,47,565,['n'],1,right,['2'],2,227,[-0.11572331],90,47,medium,minus,dotcolour,alfa,,,75,18,V,R,
48,48,6,1,0,44,36,765,['c'],1,left,['9'],5,86,[-0.00246819],48,44,hard,minus,dotcolour,alfa,,,75,18,V,R,
49,49,7,1,0,53,27,647,['c'],1,left,['0'],6,113,[0.10626997],95,53,easy,minus,dotcolour,alfa,,,75,18,V,R,
50,50,8,1,0,47,33,532,['c'],1,left,['0'],6,305,[0.04647716],68,47,medium,minus,dotcolour,alfa,,,75,18,V,R,
51,51,9,1,0,36,44,699,['n'],1,right,['0'],6,530,[0.02492403],42,44,hard,minus,dotcolour,alfa,,,75,18,V,R,
52,52,10,1,0,33,47,583,['n'],1,right,['0'],6,166,[-0.0997284],90,47,medium,minus,dotcolour,alfa,,,75,18,V,R,
53,53,11,1,0,53,27,650,['c'],1,left,['0'],6,166,[0.07594722],84,53,easy,minus,dotcolour,alfa,,,75,18,V,R,
54,54,12,1,0,27,53,447,['n'],1,right,['0'],6,119,[-0.03916195],74,53,easy,minus,dotcolour,alfa,,,75,18,V,R,
55,55,13,1,0,27,53,432,['n'],1,right,['0'],6,147,[-0.14570372],97,53,easy,minus,dotcolour,alfa,,,75,18,V,R,
56,56,14,1,0,27,53,449,['n'],1,right,['0'],6,188,[-0.04626719],72,53,easy,minus,dotcolour,alfa,,,75,18,V,R,
57,57,15,1,0,36,44,447,['n'],1,right,['0'],6,291,[-0.00731356],53,44,hard,minus,dotcolour,alfa,,,75,18,V,R,
58,58,16,1,0,33,47,431,['n'],1,right,['8'],4,640,[-0.20147592],91,47,medium,minus,dotcolour,alfa,,,75,18,V,R,
59,59,17,1,0,33,47,465,['n'],1,right,['8'],4,164,[-0.03335107],68,47,medium,minus,dotcolour,alfa,,,75,18,V,R,
60,60,18,1,0,44,36,615,['c'],1,left,['9'],5,102,[0.11095077],96,44,hard,minus,dotcolour,alfa,,,75,18,V,R,
61,61,19,1,0,53,27,598,['c'],1,left,['9'],5,147,[0.04269446],73,53,easy,minus,dotcolour,alfa,,,75,18,V,R,
62,62,20,1,0,36,44,699,['n'],1,right,['0'],6,139,[-0.11295539],94,44,hard,minus,dotcolour,alfa,,,75,18,V,R,
63,63,21,1,0,53,27,565,['c'],1,left,['0'],6,224,[0.08739601],84,53,easy,minus,dotcolour,alfa,,,75,18,V,R,
64,64,22,1,0,47,33,865,['c'],1,left,['8'],4,670,[0.25161961],94,47,medium,minus,dotcolour,alfa,,,75,18,V,R,
65,65,23,1,0,44,36,816,['n'],0,left,['3'],3,186,[-0.04949455],74,44,hard,minus,dotcolour,alfa,,,75,18,V,R,
66,66,24,1,0,27,53,482,['n'],1,right,['0'],6,153,[-0.08092204],87,53,easy,minus,dotcolour,alfa,,,75,18,V,R,
67,67,25,1,0,36,44,532,['n'],1,right,['0'],6,223,[-0.1159332],90,44,hard,minus,dotcolour,alfa,,,75,18,V,R,
68,68,26,1,0,36,44,448,['n'],1,right,['3'],3,1269,[-0.17892629],81,44,hard,minus,dotcolour,alfa,,,75,18,V,R,
69,69,27,1,0,33,47,383,['n'],1,right,['0'],6,340,[0.06311458],27,47,medium,minus,dotcolour,alfa,,,75,18,V,R,
70,70,28,1,0,53,27,748,['c'],1,left,['9'],5,185,[0.11235332],91,53,easy,minus,dotcolour,alfa,,,75,18,V,R,
71,71,29,1,0,53,27,915,['c'],1,left,['8'],4,1039,[0.11385189],73,53,easy,minus,dotcolour,alfa,,,75,18,V,R,
72,72,30,1,0,44,36,982,['c'],1,left,['3'],3,911,[0.06421291],65,44,hard,minus,dotcolour,alfa,,,75,18,V,R,
73,73,31,1,0,33,47,598,['n'],1,right,['9'],5,347,[-0.11824243],86,47,medium,minus,dotcolour,alfa,,,75,18,V,R,
74,74,32,1,0,27,53,664,['n'],1,right,['8'],4,1140,[-0.35930856],95,53,easy,minus,dotcolour,alfa,,,75,18,V,R,
75,75,33,1,0,33,47,566,['n'],1,right,['8'],4,128,[-0.03504032],71,47,medium,minus,dotcolour,alfa,,,75,18,V,R,
76,76,34,1,0,47,33,716,['n'],0,left,['9'],5,336,[-0.05233148],69,47,medium,minus,dotcolour,alfa,,,75,18,V,R,
77,77,35,1,0,47,33,850,['n'],0,left,['9'],5,145,[-0.08161582],87,47,medium,minus,dotcolour,alfa,,,75,18,V,R,
78,78,36,1,0,44,36,733,['n'],0,left,['9'],5,175,[-0.10236165],90,44,hard,minus,dotcolour,alfa,,,75,18,V,R,
79,79,37,1,0,27,53,564,['n'],1,right,['8'],4,187,[-0.05343156],75,53,easy,minus,dotcolour,alfa,,,75,18,V,R,
80,80,38,1,0,36,44,682,['n'],1,right,['9'],5,145,[-0.06953934],84,44,hard,minus,dotcolour,alfa,,,75,18,V,R,
81,81,39,1,0,53,27,715,['c'],1,left,['9'],5,176,[0.12828007],94,53,easy,minus,dotcolour,alfa,,,75,18,V,R,
82,82,40,1,0,27,53,733,['n'],1,right,['0'],6,893,[-0.16697264],83,53,easy,minus,dotcolour,alfa,,,75,18,V,R,
83,83,41,1,0,36,44,1599,['n'],1,right,['8'],4,610,[-0.08997564],74,44,hard,minus,dotcolour,alfa,,,75,18,V,R,
84,84,0,2,0,33,47,749,['n'],1,right,['0'],6,201,[-0.10736427],90,47,medium,minus,dotcolour,alfa,,,75,18,V,R,
85,85,1,2,0,36,44,565,['n'],1,right,['0'],6,243,[-0.1301269],91,44,hard,minus,dotcolour,alfa,,,75,18,V,R,
86,86,2,2,0,47,33,1199,['c'],1,left,['9'],5,667,[0.26881994],95,47,medium,minus,dotcolour,alfa,,,75,18,V,R,
87,87,3,2,0,33,47,816,['n'],1,right,['9'],5,369,[-0.06303861],72,47,medium,minus,dotcolour,alfa,,,75,18,V,R,
88,88,4,2,0,47,33,1383,['c'],1,left,['9'],5,188,[0.11770267],92,47,medium,minus,dotcolour,alfa,,,75,18,V,R,
89,89,5,2,0,27,53,1197,['n'],1,right,['0'],6,173,[-0.13243137],95,53,easy,minus,dotcolour,alfa,,,75,18,V,R,
90,90,6,2,0,33,47,598,['n'],1,right,['0'],6,431,[-0.0851795],76,47,medium,minus,dotcolour,alfa,,,75,18,V,R,
91,91,7,2,0,53,27,897,['c'],1,left,['9'],5,579,[0.18824267],90,53,easy,minus,dotcolour,alfa,,,75,18,V,R,
92,92,8,2,0,27,53,632,['n'],1,right,['0'],6,91,[-0.10207213],95,53,easy,minus,dotcolour,alfa,,,75,18,V,R,
93,93,9,2,0,47,33,867,['c'],1,left,['9'],5,478,[0.17056195],90,47,medium,minus,dotcolour,alfa,,,75,18,V,R,
94,94,10,2,0,44,36,999,['n'],0,left,['8'],4,1532,[0.0317483],44,44,hard,minus,dotcolour,alfa,,,75,18,V,R,
95,95,11,2,0,47,33,1083,['c'],1,left,['9'],5,388,[0.08995508],79,47,medium,minus,dotcolour,alfa,,,75,18,V,R,
96,96,12,2,0,27,53,515,['n'],1,right,['0'],6,113,[-0.10749521],95,53,easy,minus,dotcolour,alfa,,,75,18,V,R,
97,97,13,2,0,36,44,716,['n'],1,right,['9'],5,313,[-0.07149345],76,44,hard,minus,dotcolour,alfa,,,75,18,V,R,
98,98,14,2,0,36,44,632,['n'],1,right,['0'],6,164,[-0.06393982],81,44,hard,minus,dotcolour,alfa,,,75,18,V,R,
99,99,15,2,0,27,53,481,['n'],1,right,['0'],6,172,[-0.03157873],66,53,easy,minus,dotcolour,alfa,,,75,18,V,R,
100,100,16,2,0,27,53,398,['n'],1,right,['0'],6,151,[-0.16125257],98,53,easy,minus,dotcolour,alfa,,,75,18,V,R,
101,101,17,2,0,33,47,432,['n'],1,right,['0'],6,712,[-0.07819208],70,47,medium,minus,dotcolour,alfa,,,75,18,V,R,
102,102,18,2,0,27,53,397,['n'],1,right,['0'],6,173,[-0.13124516],94,53,easy,minus,dotcolour,alfa,,,75,18,V,R,
103,103,19,2,0,44,36,549,['c'],1,left,['0'],6,114,[0.1250459],97,44,hard,minus,dotcolour,alfa,,,75,18,V,R,
104,104,20,2,0,36,44,347,['n'],1,right,['0'],6,57,[-0.08738583],96,44,hard,minus,dotcolour,alfa,,,75,18,V,R,
105,105,21,2,0,53,27,749,['c'],1,left,['0'],6,154,[0.0681948],83,53,easy,minus,dotcolour,alfa,,,75,18,V,R,
106,106,22,2,0,44,36,1367,['n'],0,left,['3'],3,767,[-0.10963155],76,44,hard,minus,dotcolour,alfa,,,75,18,V,R,
107,107,23,2,0,44,36,2049,['n'],0,left,['8'],4,527,[-0.13163775],84,44,hard,minus,dotcolour,alfa,,,75,18,V,R,
108,108,24,2,0,47,33,982,['c'],1,left,['8'],4,780,[0.16526851],84,47,medium,minus,dotcolour,alfa,,,75,18,V,R,
109,109,25,2,0,33,47,917,['n'],1,right,['3'],3,810,[-0.10822219],75,47,medium,minus,dotcolour,alfa,,,75,18,V,R,
110,110,26,2,0,44,36,883,['c'],1,left,['8'],4,303,[0.11002872],86,44,hard,minus,dotcolour,alfa,,,75,18,V,R,
111,111,27,2,0,44,36,933,['c'],1,left,['8'],4,2135,[0.11007745],66,44,hard,minus,dotcolour,alfa,,,75,18,V,R,
112,112,28,2,0,53,27,631,['c'],1,left,['9'],5,600,[0.1741685],88,53,easy,minus,dotcolour,alfa,,,75,18,V,R,
113,113,29,2,0,36,44,717,['n'],1,right,['9'],5,2365,[-0.03120008],55,44,hard,minus,dotcolour,alfa,,,75,18,V,R,
114,114,30,2,0,53,27,748,['c'],1,left,['9'],5,416,[0.08665734],77,53,easy,minus,dotcolour,alfa,,,75,18,V,R,
115,115,31,2,0,47,33,1599,['c'],1,left,['9'],5,552,[0.11514498],80,47,medium,minus,dotcolour,alfa,,,75,18,V,R,
116,116,32,2,0,33,47,897,['n'],1,right,['3'],3,848,[-0.32095257],96,47,medium,minus,dotcolour,alfa,,,75,18,V,R,
117,117,33,2,0,36,44,1382,['c'],0,right,['9'],5,239,[0.02264383],60,44,hard,minus,dotcolour,alfa,,,75,18,V,R,
118,118,34,2,0,53,27,633,['n'],0,left,['2'],2,1486,[0.10231082],32,53,easy,minus,dotcolour,alfa,,,75,18,V,R,
119,119,35,2,0,47,33,764,['c'],1,left,['2'],2,948,[0.05308893],62,47,medium,minus,dotcolour,alfa,,,75,18,V,R,
120,120,36,2,0,44,36,915,['c'],1,left,['9'],5,483,[0.14155341],86,44,hard,minus,dotcolour,alfa,,,75,18,V,R,
121,121,37,2,0,36,44,832,['n'],1,right,['9'],5,135,[-0.0648692],83,44,hard,minus,dotcolour,alfa,,,75,18,V,R,
122,122,38,2,0,53,27,614,['c'],1,left,['9'],5,194,[0.10338207],89,53,easy,minus,dotcolour,alfa,,,75,18,V,R,
123,123,39,2,0,53,27,932,['c'],1,left,['8'],4,990,[0.1294665],76,53,easy,minus,dotcolour,alfa,,,75,18,V,R,
124,124,40,2,0,33,47,566,['n'],1,right,['9'],5,497,[-0.1385288],85,47,medium,minus,dotcolour,alfa,,,75,18,V,R,
125,125,41,2,0,27,53,598,['n'],1,right,['9'],5,366,[-0.06921578],74,53,easy,minus,dotcolour,alfa,,,75,18,V,R,
126,0,0,3,1,27,53,550,['n'],1,right,['9'],5,202,[-0.08207553],100,53,easy,plus,dotcolour,alfa,,,75,18,V,R,
127,1,1,3,1,27,53,432,['n'],1,right,['0'],6,114,[-0.07305973],100,53,easy,plus,dotcolour,alfa,,,75,18,V,R,
128,2,2,3,1,36,44,464,['n'],1,right,['0'],6,149,[-0.04065551],98,44,hard,plus,dotcolour,alfa,,,75,18,V,R,
129,3,3,3,1,47,33,915,['c'],1,left,['9'],5,171,[0.09729346],100,47,medium,plus,dotcolour,alfa,,,75,18,V,R,
130,4,4,3,1,53,27,1465,['c'],1,left,['8'],4,610,[0.16379586],100,53,easy,plus,dotcolour,alfa,,,75,18,V,R,
131,5,5,3,1,47,33,1098,['n'],0,left,['8'],4,415,[0.06035694],3,47,medium,plus,dotcolour,alfa,,,75,18,V,R,
132,6,6,3,1,36,44,1032,['n'],1,right,['8'],4,310,[-0.04135273],94,44,hard,plus,dotcolour,alfa,,,75,18,V,R,
133,7,7,3,1,44,36,933,['c'],1,left,['9'],5,1054,[0.08497674],95,44,hard,plus,dotcolour,alfa,,,75,18,V,R,
134,8,8,3,1,33,47,1132,['n'],1,right,['8'],4,1215,[-0.21444164],100,47,medium,plus,dotcolour,alfa,,,75,18,V,R,
135,9,9,3,1,33,47,816,['n'],1,right,['0'],6,1591,[-0.2809943],100,47,medium,plus,dotcolour,alfa,,,75,18,V,R,
136,10,10,3,1,33,47,583,['n'],1,right,['0'],6,248,[-0.09163901],100,47,medium,plus,dotcolour,alfa,,,75,18,V,R,
137,11,11,3,1,47,33,749,['c'],1,left,['0'],6,233,[0.08190336],100,47,medium,plus,dotcolour,alfa,,,75,18,V,R,
138,12,12,3,1,44,36,1248,['c'],1,left,['9'],5,463,[0.13915241],100,44,hard,plus,dotcolour,alfa,,,75,18,V,R,
139,13,13,3,1,27,53,598,['n'],1,right,['0'],6,102,[-0.10258778],100,53,easy,plus,dotcolour,alfa,,,75,18,V,R,
140,14,14,3,1,27,53,565,['n'],1,right,['0'],6,189,[-0.06312696],99,53,easy,plus,dotcolour,alfa,,,75,18,V,R,
141,15,15,3,1,53,27,782,['c'],1,left,['0'],6,215,[0.10011694],100,53,easy,plus,dotcolour,alfa,,,75,18,V,R,
142,16,16,3,1,36,44,915,['n'],1,right,['9'],5,531,[-0.04134544],89,44,hard,plus,dotcolour,alfa,,,75,18,V,R,
143,17,17,3,1,36,44,998,['n'],1,right,['8'],4,502,[0.0205409],26,44,hard,plus,dotcolour,alfa,,,75,18,V,R,
144,18,18,3,1,47,33,832,['c'],1,left,['9'],5,347,[0.12153257],100,47,medium,plus,dotcolour,alfa,,,75,18,V,R,
145,19,19,3,1,53,27,2315,['c'],1,left,['8'],4,889,[0.3262748],100,53,easy,plus,dotcolour,alfa,,,75,18,V,R,
146,20,20,3,1,36,44,1898,['n'],1,right,['0'],6,370,[-0.16494887],100,44,hard,plus,dotcolour,alfa,,,75,18,V,R,
147,21,21,3,1,47,33,748,['c'],1,left,['0'],6,183,[0.14502208],100,47,medium,plus,dotcolour,alfa,,,75,18,V,R,
148,22,22,3,1,36,44,2065,['c'],0,right,['9'],5,262,[0.0162186],76,44,hard,plus,dotcolour,alfa,,,75,18,V,R,
149,23,23,3,1,47,33,965,['c'],1,left,['9'],5,175,[0.00648986],64,47,medium,plus,dotcolour,alfa,,,75,18,V,R,
150,24,24,3,1,53,27,649,['c'],1,left,['8'],4,1183,[0.36877137],100,53,easy,plus,dotcolour,alfa,,,75,18,V,R,
151,25,25,3,1,27,53,1197,['n'],1,right,['0'],6,641,[-0.20202576],100,53,easy,plus,dotcolour,alfa,,,75,18,V,R,
152,26,26,3,1,53,27,882,['c'],1,left,['0'],6,404,[0.12419523],100,53,easy,plus,dotcolour,alfa,,,75,18,V,R,
153,27,27,3,1,44,36,1833,['n'],0,left,['9'],5,644,[0.14885739],0,44,hard,plus,dotcolour,alfa,,,75,18,V,R,
154,28,28,3,1,33,47,1533,['n'],1,right,['9'],5,502,[-0.00885153],61,47,medium,plus,dotcolour,alfa,,,75,18,V,R,
155,29,29,3,1,44,36,1665,['n'],0,left,['9'],5,384,[0.0405872],9,44,hard,plus,dotcolour,alfa,,,75,18,V,R,
156,30,30,3,1,27,53,684,['n'],1,right,['0'],6,254,[-0.03708867],93,53,easy,plus,dotcolour,alfa,,,75,18,V,R,
157,31,31,3,1,33,47,716,['n'],1,right,['9'],5,224,[0.00106747],48,47,medium,plus,dotcolour,alfa,,,75,18,V,R,
158,32,32,3,1,47,33,865,['c'],1,left,['9'],5,158,[-0.04274547],2,47,medium,plus,dotcolour,alfa,,,75,18,V,R,
159,33,33,3,1,33,47,832,['n'],1,right,['9'],5,287,[0.04255589],5,47,medium,plus,dotcolour,alfa,,,75,18,V,R,
160,34,34,3,1,27,53,581,['n'],1,right,['0'],6,149,[-0.03230635],95,53,easy,plus,dotcolour,alfa,,,75,18,V,R,
161,35,35,3,1,44,36,748,['c'],1,left,['9'],5,250,[0.10048566],100,44,hard,plus,dotcolour,alfa,,,75,18,V,R,
162,36,36,3,1,53,27,682,['c'],1,left,['8'],4,438,[0.10895482],100,53,easy,plus,dotcolour,alfa,,,75,18,V,R,
163,37,37,3,1,36,44,947,['n'],1,right,['9'],5,151,[-0.09528738],100,44,hard,plus,dotcolour,alfa,,,75,18,V,R,
164,38,38,3,1,53,27,699,['c'],1,left,['9'],5,95,[0.09407897],100,53,easy,plus,dotcolour,alfa,,,75,18,V,R,
165,39,39,3,1,33,47,682,['n'],1,right,['0'],6,145,[-0.04730047],99,47,medium,plus,dotcolour,alfa,,,75,18,V,R,
166,40,40,3,1,44,36,1332,['c'],1,left,['9'],5,191,[0.07462088],100,44,hard,plus,dotcolour,alfa,,,75,18,V,R,
167,41,41,3,1,44,36,1483,['n'],0,left,['8'],4,357,[-0.03037008],86,44,hard,plus,dotcolour,alfa,,,75,18,V,R,
168,42,0,4,1,33,47,700,['n'],1,right,['0'],6,121,[-0.13529315],100,47,medium,plus,dotcolour,alfa,,,75,18,V,R,
169,43,1,4,1,36,44,449,['n'],1,right,['0'],6,147,[-0.05561481],99,44,hard,plus,dotcolour,alfa,,,75,18,V,R,
170,44,2,4,1,47,33,799,['c'],1,left,['9'],5,334,[0.20128898],100,47,medium,plus,dotcolour,alfa,,,75,18,V,R,
171,45,3,4,1,53,27,1915,['n'],0,left,['9'],5,557,[-0.00354439],54,53,easy,plus,dotcolour,alfa,,,75,18,V,R,
172,46,4,4,1,33,47,715,['n'],1,right,['0'],6,163,[-0.04054741],97,47,medium,plus,dotcolour,alfa,,,75,18,V,R,
173,47,5,4,1,36,44,664,['n'],1,right,['0'],6,348,[-0.0351178],90,44,hard,plus,dotcolour,alfa,,,75,18,V,R,
174,48,6,4,1,27,53,415,['n'],1,right,['0'],6,214,[-0.06630901],99,53,easy,plus,dotcolour,alfa,,,75,18,V,R,
175,49,7,4,1,47,33,749,['c'],1,left,['0'],6,257,[0.0747602],100,47,medium,plus,dotcolour,alfa,,,75,18,V,R,
176,50,8,4,1,36,44,1082,['n'],1,right,['0'],6,148,[-0.04074931],98,44,hard,plus,dotcolour,alfa,,,75,18,V,R,
177,51,9,4,1,47,33,866,['c'],1,left,['9'],5,189,[0.1598303],100,47,medium,plus,dotcolour,alfa,,,75,18,V,R,
178,52,10,4,1,33,47,549,['n'],1,right,['0'],6,104,[-0.05854969],100,47,medium,plus,dotcolour,alfa,,,75,18,V,R,
179,53,11,4,1,27,53,599,['n'],1,right,['0'],6,157,[-0.044786],98,53,easy,plus,dotcolour,alfa,,,75,18,V,R,
180,54,12,4,1,44,36,883,['n'],0,left,['9'],5,453,[-0.13412862],100,44,hard,plus,dotcolour,alfa,,,75,18,V,R,
181,55,13,4,1,47,33,599,['c'],1,left,['0'],6,413,[0.14423594],100,47,medium,plus,dotcolour,alfa,,,75,18,V,R,
182,56,14,4,1,47,33,748,['c'],1,left,['8'],4,679,[0.07509779],96,47,medium,plus,dotcolour,alfa,,,75,18,V,R,
183,57,15,4,1,36,44,715,['n'],1,right,['9'],5,145,[-0.10620939],100,44,hard,plus,dotcolour,alfa,,,75,18,V,R,
184,58,16,4,1,27,53,548,['n'],1,right,['0'],6,182,[-0.03982133],97,53,easy,plus,dotcolour,alfa,,,75,18,V,R,
185,59,17,4,1,44,36,765,['c'],1,left,['9'],5,186,[0.06133759],99,44,hard,plus,dotcolour,alfa,,,75,18,V,R,
186,60,18,4,1,44,36,848,['c'],1,left,['8'],4,217,[0.07974617],100,44,hard,plus,dotcolour,alfa,,,75,18,V,R,
187,61,19,4,1,44,36,1049,['c'],1,left,['8'],4,504,[0.12995885],100,44,hard,plus,dotcolour,alfa,,,75,18,V,R,
188,62,20,4,1,27,53,632,['n'],1,right,['9'],5,211,[-0.14409685],100,53,easy,plus,dotcolour,alfa,,,75,18,V,R,
189,63,21,4,1,47,33,949,['c'],1,left,['9'],5,174,[0.09216661],100,47,medium,plus,dotcolour,alfa,,,75,18,V,R,
190,64,22,4,1,27,53,3030,['c'],0,right,['9'],5,463,[0.02336039],77,53,easy,plus,dotcolour,alfa,,,75,18,V,R,
191,65,23,4,1,33,47,516,['n'],1,right,['9'],5,153,[-0.08371774],100,47,medium,plus,dotcolour,alfa,,,75,18,V,R,
192,66,24,4,1,36,44,798,['n'],1,right,['9'],5,228,[-0.10644985],100,44,hard,plus,dotcolour,alfa,,,75,18,V,R,
193,67,25,4,1,53,27,732,['c'],1,left,['9'],5,214,[0.14469375],100,53,easy,plus,dotcolour,alfa,,,75,18,V,R,
194,68,26,4,1,44,36,732,['n'],0,left,['9'],5,146,[-0.1006324],100,44,hard,plus,dotcolour,alfa,,,75,18,V,R,
195,69,27,4,1,53,27,632,['c'],1,left,['9'],5,220,[0.06864397],99,53,easy,plus,dotcolour,alfa,,,75,18,V,R,
196,70,28,4,1,53,27,530,['c'],1,left,['9'],5,742,[0.20928398],100,53,easy,plus,dotcolour,alfa,,,75,18,V,R,
197,71,29,4,1,47,33,566,['c'],1,left,['0'],6,371,[0.17035984],100,47,medium,plus,dotcolour,alfa,,,75,18,V,R,
198,72,30,4,1,33,47,849,['n'],1,right,['9'],5,219,[-0.07969994],100,47,medium,plus,dotcolour,alfa,,,75,18,V,R,
199,73,31,4,1,27,53,548,['n'],1,right,['9'],5,150,[-0.09627938],100,53,easy,plus,dotcolour,alfa,,,75,18,V,R,
200,74,32,4,1,44,36,1749,['c'],1,left,['9'],5,179,[0.08271229],100,44,hard,plus,dotcolour,alfa,,,75,18,V,R,
201,75,33,4,1,53,27,932,['c'],1,left,['9'],5,296,[0.19094241],100,53,easy,plus,dotcolour,alfa,,,75,18,V,R,
202,76,34,4,1,53,27,681,['c'],1,left,['9'],5,218,[0.09297065],100,53,easy,plus,dotcolour,alfa,,,75,18,V,R,
203,77,35,4,1,53,27,650,['c'],1,left,['9'],5,225,[0.17267314],100,53,easy,plus,dotcolour,alfa,,,75,18,V,R,
204,78,36,4,1,44,36,1034,['c'],1,left,['8'],4,600,[0.09702858],99,44,hard,plus,dotcolour,alfa,,,75,18,V,R,
205,79,37,4,1,33,47,817,['n'],1,right,['9'],5,184,[-0.10771823],100,47,medium,plus,dotcolour,alfa,,,75,18,V,R,
206,80,38,4,1,27,53,532,['n'],1,right,['9'],5,181,[-0.04324967],97,53,easy,plus,dotcolour,alfa,,,75,18,V,R,
207,81,39,4,1,33,47,499,['n'],1,right,['9'],5,211,[-0.1565729],100,47,medium,plus,dotcolour,alfa,,,75,18,V,R,
208,82,40,4,1,36,44,816,['n'],1,right,['8'],4,371,[-0.09553238],100,44,hard,plus,dotcolour,alfa,,,75,18,V,R,
209,83,41,4,1,36,44,565,['n'],1,right,['8'],4,207,[-0.14958906],100,44,hard,plus,dotcolour,alfa,,,75,18,V,R,
210,84,0,5,1,36,44,850,['n'],1,right,['9'],5,253,[-0.14770192],100,44,hard,plus,dotcolour,alfa,,,75,18,V,R,
211,85,1,5,1,47,33,783,['c'],1,left,['9'],5,174,[0.03061806],93,47,medium,plus,dotcolour,alfa,,,75,18,V,R,
212,86,2,5,1,44,36,1349,['c'],1,left,['3'],3,842,[0.17083751],100,44,hard,plus,dotcolour,alfa,,,75,18,V,R,
213,87,3,5,1,44,36,1151,['n'],0,left,['3'],3,427,[-0.03450943],87,44,hard,plus,dotcolour,alfa,,,75,18,V,R,
214,88,4,5,1,47,33,783,['n'],0,left,['1'],1,1443,[0.16275525],1,47,medium,plus,dotcolour,alfa,,,75,18,V,R,
215,89,5,5,1,36,44,832,['n'],1,right,['8'],4,1121,[-0.07097552],92,44,hard,plus,dotcolour,alfa,,,75,18,V,R,
216,90,6,5,1,27,53,665,['n'],1,right,['0'],6,667,[-0.29483596],100,53,easy,plus,dotcolour,alfa,,,75,18,V,R,
217,91,7,5,1,27,53,533,['n'],1,right,['0'],6,116,[-0.10543788],100,53,easy,plus,dotcolour,alfa,,,75,18,V,R,
218,92,8,5,1,44,36,432,['n'],0,left,['2'],2,1023,[0.06349829],9,44,hard,plus,dotcolour,alfa,,,75,18,V,R,
219,93,9,5,1,27,53,500,['n'],1,right,['0'],6,555,[-0.37566714],100,53,easy,plus,dotcolour,alfa,,,75,18,V,R,
220,94,10,5,1,47,33,1183,['c'],1,left,['9'],5,303,[0.02520933],84,47,medium,plus,dotcolour,alfa,,,75,18,V,R,
221,95,11,5,1,44,36,832,['n'],0,left,['0'],6,347,[-0.16469701],100,44,hard,plus,dotcolour,alfa,,,75,18,V,R,
222,96,12,5,1,33,47,616,['n'],1,right,['0'],6,165,[-0.08931774],100,47,medium,plus,dotcolour,alfa,,,75,18,V,R,
223,97,13,5,1,33,47,1365,['n'],1,right,['0'],6,1873,[-0.22125093],100,47,medium,plus,dotcolour,alfa,,,75,18,V,R,
224,98,14,5,1,53,27,749,['c'],1,left,['0'],6,1025,[0.21141854],100,53,easy,plus,dotcolour,alfa,,,75,18,V,R,
225,99,15,5,1,44,36,1583,['n'],0,left,['9'],5,209,[-0.115727],100,44,hard,plus,dotcolour,alfa,,,75,18,V,R,
226,100,16,5,1,36,44,2081,['n'],1,right,['9'],5,351,[-0.14481003],100,44,hard,plus,dotcolour,alfa,,,75,18,V,R,
227,101,17,5,1,33,47,915,['n'],1,right,['0'],6,86,[-0.10388253],100,47,medium,plus,dotcolour,alfa,,,75,18,V,R,
228,102,18,5,1,47,33,1099,['c'],1,left,['9'],5,199,[0.08549851],100,47,medium,plus,dotcolour,alfa,,,75,18,V,R,
229,103,19,5,1,53,27,917,['c'],1,left,['8'],4,251,[0.09716481],100,53,easy,plus,dotcolour,alfa,,,75,18,V,R,
230,104,20,5,1,44,36,1265,['c'],1,left,['8'],4,121,[0.09957453],100,44,hard,plus,dotcolour,alfa,,,75,18,V,R,
231,105,21,5,1,53,27,597,['c'],1,left,['9'],5,237,[0.17826536],100,53,easy,plus,dotcolour,alfa,,,75,18,V,R,
232,106,22,5,1,47,33,1898,['c'],1,left,['8'],4,136,[0.06256065],100,47,medium,plus,dotcolour,alfa,,,75,18,V,R,
233,107,23,5,1,53,27,682,['c'],1,left,['8'],4,650,[0.30499086],100,53,easy,plus,dotcolour,alfa,,,75,18,V,R,
234,108,24,5,1,47,33,650,['c'],1,left,['9'],5,159,[0.06679144],100,47,medium,plus,dotcolour,alfa,,,75,18,V,R,
235,109,25,5,1,53,27,516,['c'],1,left,['9'],5,180,[0.14671872],100,53,easy,plus,dotcolour,alfa,,,75,18,V,R,
236,110,26,5,1,36,44,713,['n'],1,right,['0'],6,42,[-0.07626818],100,44,hard,plus,dotcolour,alfa,,,75,18,V,R,
237,111,27,5,1,33,47,782,['n'],1,right,['9'],5,210,[-0.12935344],100,47,medium,plus,dotcolour,alfa,,,75,18,V,R,
238,112,28,5,1,36,44,633,['n'],1,right,['8'],4,538,[0.04433893],10,44,hard,plus,dotcolour,alfa,,,75,18,V,R,
239,113,29,5,1,27,53,665,['n'],1,right,['0'],6,235,[-0.18464909],100,53,easy,plus,dotcolour,alfa,,,75,18,V,R,
240,114,30,5,1,27,53,550,['n'],1,right,['0'],6,355,[-0.02694242],84,53,easy,plus,dotcolour,alfa,,,75,18,V,R,
241,115,31,5,1,33,47,448,['n'],1,right,['0'],6,276,[-0.04466021],96,47,medium,plus,dotcolour,alfa,,,75,18,V,R,
242,116,32,5,1,27,53,466,['n'],1,right,['0'],6,240,[-0.10986624],100,53,easy,plus,dotcolour,alfa,,,75,18,V,R,
243,117,33,5,1,33,47,499,['n'],1,right,['0'],6,251,[-0.0247039],86,47,medium,plus,dotcolour,alfa,,,75,18,V,R,
244,118,34,5,1,36,44,515,['n'],1,right,['0'],6,254,[-0.05343777],98,44,hard,plus,dotcolour,alfa,,,75,18,V,R,
245,119,35,5,1,47,33,748,['c'],1,left,['9'],5,471,[0.13577745],100,47,medium,plus,dotcolour,alfa,,,75,18,V,R,
246,120,36,5,1,53,27,565,['c'],1,left,['9'],5,382,[-0.0044427],44,53,easy,plus,dotcolour,alfa,,,75,18,V,R,
247,121,37,5,1,27,53,583,['n'],1,right,['0'],6,937,[-0.0761724],94,53,easy,plus,dotcolour,alfa,,,75,18,V,R,
248,122,38,5,1,44,36,798,['c'],1,left,['0'],6,948,[0.13623907],99,44,hard,plus,dotcolour,alfa,,,75,18,V,R,
249,123,39,5,1,36,44,931,['c'],0,right,['9'],5,626,[0.09955206],99,44,hard,plus,dotcolour,alfa,,,75,18,V,R,
250,124,40,5,1,53,27,599,['c'],1,left,['9'],5,178,[0.13296924],100,53,easy,plus,dotcolour,alfa,,,75,18,V,R,
251,125,41,5,1,33,47,733,['n'],1,right,['9'],5,223,[-0.10782531],100,47,medium,plus,dotcolour,alfa,,,75,18,V,R,
252,0,0,6,2,53,27,1133,['c'],1,left,['9'],5,108,[0.09768166],94,53,easy,minus,dotcolour,alfa,,,75,18,V,R,
253,1,1,6,2,44,36,1082,['c'],1,left,['9'],5,132,[0.10990786],94,44,hard,minus,dotcolour,alfa,,,75,18,V,R,
254,2,2,6,2,27,53,614,['n'],1,right,['0'],6,152,[-0.10170698],91,53,easy,minus,dotcolour,alfa,,,75,18,V,R,
255,3,3,6,2,47,33,699,['n'],0,left,['9'],5,119,[-0.10123243],93,47,medium,minus,dotcolour,alfa,,,75,18,V,R,
256,4,4,6,2,47,33,1381,['c'],1,left,['9'],5,277,[0.03279389],64,47,medium,minus,dotcolour,alfa,,,75,18,V,R,
257,5,5,6,2,33,47,499,['n'],1,right,['0'],6,543,[-0.12974531],83,47,medium,minus,dotcolour,alfa,,,75,18,V,R,
258,6,6,6,2,44,36,663,['c'],1,left,['9'],5,103,[0.06607257],86,44,hard,minus,dotcolour,alfa,,,75,18,V,R,
259,7,7,6,2,53,27,1016,['c'],1,left,['9'],5,107,[0.08981543],92,53,easy,minus,dotcolour,alfa,,,75,18,V,R,
260,8,8,6,2,44,36,582,['n'],0,left,['0'],6,130,[-0.07040081],85,44,hard,minus,dotcolour,alfa,,,75,18,V,R,
261,9,9,6,2,53,27,798,['c'],1,left,['9'],5,117,[0.0917016],92,53,easy,minus,dotcolour,alfa,,,75,18,V,R,
262,10,10,6,2,36,44,515,['n'],1,right,['0'],6,69,[-0.07471119],93,44,hard,minus,dotcolour,alfa,,,75,18,V,R,
263,11,11,6,2,33,47,497,['n'],1,right,['8'],4,823,[-0.13399297],79,47,medium,minus,dotcolour,alfa,,,75,18,V,R,
264,12,12,6,2,36,44,448,['n'],1,right,['0'],6,133,[-0.1683901],98,44,hard,minus,dotcolour,alfa,,,75,18,V,R,
265,13,13,6,2,53,27,549,['c'],1,left,['0'],6,147,[0.08397508],88,53,easy,minus,dotcolour,alfa,,,75,18,V,R,
266,14,14,6,2,33,47,466,['n'],1,right,['0'],6,124,[-0.04665536],77,47,medium,minus,dotcolour,alfa,,,75,18,V,R,
267,15,15,6,2,53,27,532,['c'],1,left,['0'],6,139,[0.14622755],97,53,easy,minus,dotcolour,alfa,,,75,18,V,R,
268,16,16,6,2,36,44,598,['n'],1,right,['0'],6,167,[-0.0902729],88,44,hard,minus,dotcolour,alfa,,,75,18,V,R,
269,17,17,6,2,36,44,816,['c'],0,right,['9'],5,161,[0.07036959],83,44,hard,minus,dotcolour,alfa,,,75,18,V,R,
270,18,18,6,2,27,53,632,['n'],1,right,['0'],6,114,[-0.11921538],96,53,easy,minus,dotcolour,alfa,,,75,18,V,R,
271,19,19,6,2,47,33,1250,['c'],1,left,['9'],5,221,[0.16129248],96,47,medium,minus,dotcolour,alfa,,,75,18,V,R,
272,20,20,6,2,33,47,400,['n'],1,right,['0'],6,150,[-0.16884262],98,47,medium,minus,dotcolour,alfa,,,75,18,V,R,
273,21,21,6,2,36,44,732,['n'],1,right,['9'],5,172,[-0.09748745],89,44,hard,minus,dotcolour,alfa,,,75,18,V,R,
274,22,22,6,2,36,44,533,['n'],1,right,['0'],6,112,[-0.10503486],94,44,hard,minus,dotcolour,alfa,,,75,18,V,R,
275,23,23,6,2,27,53,515,['n'],1,right,['0'],6,80,[-0.10011279],96,53,easy,minus,dotcolour,alfa,,,75,18,V,R,
276,24,24,6,2,33,47,481,['n'],1,right,['0'],6,99,[-0.08983275],93,47,medium,minus,dotcolour,alfa,,,75,18,V,R,
277,25,25,6,2,44,36,816,['c'],1,left,['3'],3,992,[0.09548635],70,44,hard,minus,dotcolour,alfa,,,75,18,V,R,
278,26,26,6,2,27,53,499,['n'],1,right,['0'],6,85,[-0.08982402],94,53,easy,minus,dotcolour,alfa,,,75,18,V,R,
279,27,27,6,2,47,33,799,['c'],1,left,['8'],4,307,[0.06874574],75,47,medium,minus,dotcolour,alfa,,,75,18,V,R,
280,28,28,6,2,44,36,1182,['c'],1,left,['9'],5,328,[-0.03107239],38,44,hard,minus,dotcolour,alfa,,,75,18,V,R,
281,29,29,6,2,53,27,665,['c'],1,left,['0'],6,314,[0.01690535],57,53,easy,minus,dotcolour,alfa,,,75,18,V,R,
282,30,30,6,2,27,53,1148,['n'],1,right,['8'],4,456,[-0.13518322],86,53,easy,minus,dotcolour,alfa,,,75,18,V,R,
283,31,31,6,2,33,47,798,['n'],1,right,['0'],6,135,[-0.10896029],94,47,medium,minus,dotcolour,alfa,,,75,18,V,R,
284,32,32,6,2,33,47,532,['n'],1,right,['0'],6,126,[-0.06519913],84,47,medium,minus,dotcolour,alfa,,,75,18,V,R,
285,33,33,6,2,27,53,665,['n'],1,right,['0'],6,87,[-0.06569988],88,53,easy,minus,dotcolour,alfa,,,75,18,V,R,
286,34,34,6,2,53,27,916,['c'],1,left,['9'],5,176,[0.12451852],94,53,easy,minus,dotcolour,alfa,,,75,18,V,R,
287,35,35,6,2,44,36,899,['c'],1,left,['9'],5,222,[0.12063195],91,44,hard,minus,dotcolour,alfa,,,75,18,V,R,
288,36,36,6,2,47,33,497,['c'],1,left,['0'],6,283,[0.15453036],93,47,medium,minus,dotcolour,alfa,,,75,18,V,R,
289,37,37,6,2,47,33,982,['c'],1,left,['0'],6,74,[0.08717993],95,47,medium,minus,dotcolour,alfa,,,75,18,V,R,
290,38,38,6,2,36,44,2015,['n'],1,right,['9'],5,167,[-0.06850367],82,44,hard,minus,dotcolour,alfa,,,75,18,V,R,
291,39,39,6,2,44,36,2032,['c'],1,left,['9'],5,121,[0.09212748],92,44,hard,minus,dotcolour,alfa,,,75,18,V,R,
292,40,40,6,2,27,53,698,['n'],1,right,['0'],6,73,[-0.0813149],94,53,easy,minus,dotcolour,alfa,,,75,18,V,R,
293,41,41,6,2,47,33,631,['c'],1,left,['9'],5,119,[0.10668744],94,47,medium,minus,dotcolour,alfa,,,75,18,V,R,
294,42,0,7,2,47,33,683,['c'],1,left,['0'],6,297,[0.2174532],97,47,medium,minus,dotcolour,alfa,,,75,18,V,R,
295,43,1,7,2,47,33,3950,['n'],0,left,['0'],6,200,[-0.10851651],90,47,medium,minus,dotcolour,alfa,,,75,18,V,R,
296,44,2,7,2,53,27,532,['c'],1,left,['0'],6,172,[0.11843241],93,53,easy,minus,dotcolour,alfa,,,75,18,V,R,
297,45,3,7,2,36,44,1431,['n'],1,right,['9'],5,53,[-0.08642428],97,44,hard,minus,dotcolour,alfa,,,75,18,V,R,
298,46,4,7,2,27,53,782,['n'],1,right,['0'],6,109,[-0.07279003],88,53,easy,minus,dotcolour,alfa,,,75,18,V,R,
299,47,5,7,2,33,47,1317,['n'],1,right,['9'],5,269,[-0.04848514],70,47,medium,minus,dotcolour,alfa,,,75,18,V,R,
300,48,6,7,2,44,36,1315,['c'],1,left,['8'],4,262,[0.11094161],88,44,hard,minus,dotcolour,alfa,,,75,18,V,R,
301,49,7,7,2,47,33,748,['c'],1,left,['8'],4,167,[0.07263988],83,47,medium,minus,dotcolour,alfa,,,75,18,V,R,
302,50,8,7,2,47,33,532,['c'],1,left,['9'],5,164,[0.02912675],66,47,medium,minus,dotcolour,alfa,,,75,18,V,R,
303,51,9,7,2,53,27,617,['c'],1,left,['9'],5,142,[0.12987464],96,53,easy,minus,dotcolour,alfa,,,75,18,V,R,
304,52,10,7,2,53,27,549,['c'],1,left,['9'],5,267,[0.0716658],78,53,easy,minus,dotcolour,alfa,,,75,18,V,R,
305,53,11,7,2,47,33,515,['c'],1,left,['0'],6,204,[0.11747508],91,47,medium,minus,dotcolour,alfa,,,75,18,V,R,
306,54,12,7,2,33,47,1083,['n'],1,right,['0'],6,459,[-0.08166665],75,47,medium,minus,dotcolour,alfa,,,75,18,V,R,
307,55,13,7,2,44,36,983,['c'],1,left,['0'],6,170,[0.03888697],70,44,hard,minus,dotcolour,alfa,,,75,18,V,R,
308,56,14,7,2,53,27,582,['c'],1,left,['0'],6,165,[0.08094712],86,53,easy,minus,dotcolour,alfa,,,75,18,V,R,
309,57,15,7,2,33,47,932,['n'],1,right,['0'],6,138,[-0.04687784],76,47,medium,minus,dotcolour,alfa,,,75,18,V,R,
310,58,16,7,2,33,47,932,['n'],1,right,['9'],5,376,[-0.13079734],87,47,medium,minus,dotcolour,alfa,,,75,18,V,R,
311,59,17,7,2,47,33,548,['c'],1,left,['0'],6,172,[0.0505329],75,47,medium,minus,dotcolour,alfa,,,75,18,V,R,
312,60,18,7,2,27,53,566,['n'],1,right,['0'],6,121,[-0.07856034],88,53,easy,minus,dotcolour,alfa,,,75,18,V,R,
313,61,19,7,2,36,44,1067,['n'],1,right,['0'],6,138,[-0.09796142],91,44,hard,minus,dotcolour,alfa,,,75,18,V,R,
314,62,20,7,2,44,36,600,['c'],1,left,['0'],6,118,[0.07104429],87,44,hard,minus,dotcolour,alfa,,,75,18,V,R,
315,63,21,7,2,44,36,898,['n'],0,left,['0'],6,78,[-0.05510853],86,44,hard,minus,dotcolour,alfa,,,75,18,V,R,
316,64,22,7,2,36,44,734,['n'],1,right,['0'],6,71,[-0.06258749],89,44,hard,minus,dotcolour,alfa,,,75,18,V,R,
317,65,23,7,2,36,44,767,['n'],1,right,['0'],6,103,[-0.03768124],74,44,hard,minus,dotcolour,alfa,,,75,18,V,R,
318,66,24,7,2,33,47,583,['n'],1,right,['0'],6,149,[-0.10513119],92,47,medium,minus,dotcolour,alfa,,,75,18,V,R,
319,67,25,7,2,53,27,850,['c'],1,left,['0'],6,358,[0.11591591],85,53,easy,minus,dotcolour,alfa,,,75,18,V,R,
320,68,26,7,2,36,44,517,['n'],1,right,['0'],6,132,[-0.09978989],92,44,hard,minus,dotcolour,alfa,,,75,18,V,R,
321,69,27,7,2,44,36,1050,['c'],1,left,['0'],6,190,[0.03123517],66,44,hard,minus,dotcolour,alfa,,,75,18,V,R,
322,70,28,7,2,44,36,981,['c'],1,left,['0'],6,169,[0.09971662],90,44,hard,minus,dotcolour,alfa,,,75,18,V,R,
323,71,29,7,2,36,44,683,['n'],1,right,['0'],6,128,[-0.12582694],96,44,hard,minus,dotcolour,alfa,,,75,18,V,R,
324,72,30,7,2,27,53,617,['c'],0,right,['0'],6,204,[0.0331338],66,53,easy,minus,dotcolour,alfa,,,75,18,V,R,
325,73,31,7,2,53,27,348,['n'],0,left,['1'],1,767,[0.09944749],26,53,easy,minus,dotcolour,alfa,,,75,18,V,R,
326,74,32,7,2,47,33,799,['n'],0,left,['0'],6,161,[-0.0077101],54,47,medium,minus,dotcolour,alfa,,,75,18,V,R,
327,75,33,7,2,33,47,665,['c'],0,right,['3'],3,1497,[-0.22398798],16,47,medium,minus,dotcolour,alfa,,,75,18,V,R,
328,76,34,7,2,27,53,449,['n'],1,right,['0'],6,131,[0.00511635],47,53,easy,minus,dotcolour,alfa,,,75,18,V,R,
329,77,35,7,2,27,53,1099,['n'],1,right,['0'],6,195,[-0.16621506],97,53,easy,minus,dotcolour,alfa,,,75,18,V,R,
330,78,36,7,2,33,47,565,['n'],1,right,['0'],6,134,[-0.06358898],83,47,medium,minus,dotcolour,alfa,,,75,18,V,R,
331,79,37,7,2,27,53,533,['n'],1,right,['0'],6,117,[-0.05891458],82,53,easy,minus,dotcolour,alfa,,,75,18,V,R,
332,80,38,7,2,27,53,566,['n'],1,right,['0'],6,171,[-0.00644463],54,53,easy,minus,dotcolour,alfa,,,75,18,V,R,
333,81,39,7,2,44,36,699,['c'],1,left,['0'],6,570,[0.11213638],79,44,hard,minus,dotcolour,alfa,,,75,18,V,R,
334,82,40,7,2,36,44,715,['n'],1,right,['9'],5,231,[-0.09651085],86,44,hard,minus,dotcolour,alfa,,,75,18,V,R,
335,83,41,7,2,53,27,532,['c'],1,left,['9'],5,386,[0.14960301],90,53,easy,minus,dotcolour,alfa,,,75,18,V,R,
336,84,0,8,2,27,53,600,['n'],1,right,['0'],6,172,[-0.11724417],93,53,easy,minus,dotcolour,alfa,,,75,18,V,R,
337,85,1,8,2,53,27,666,['c'],1,left,['0'],6,28,[0.09288744],99,53,easy,minus,dotcolour,alfa,,,75,18,V,R,
338,86,2,8,2,53,27,749,['c'],1,left,['0'],6,118,[0.0773197],88,53,easy,minus,dotcolour,alfa,,,75,18,V,R,
339,87,3,8,2,53,27,898,['n'],0,left,['0'],6,119,[-0.0322092],70,53,easy,minus,dotcolour,alfa,,,75,18,V,R,
340,88,4,8,2,36,44,1083,['n'],1,right,['0'],6,512,[-0.14470323],86,44,hard,minus,dotcolour,alfa,,,75,18,V,R,
341,89,5,8,2,36,44,1298,['n'],1,right,['9'],5,553,[-0.1937323],91,44,hard,minus,dotcolour,alfa,,,75,18,V,R,
342,90,6,8,2,47,33,666,['n'],0,left,['0'],6,217,[-0.0921018],86,47,medium,minus,dotcolour,alfa,,,75,18,V,R,
343,91,7,8,2,47,33,665,['c'],1,left,['0'],6,127,[0.05129663],79,47,medium,minus,dotcolour,alfa,,,75,18,V,R,
344,92,8,8,2,36,44,1148,['n'],1,right,['9'],5,182,[-0.17274826],97,44,hard,minus,dotcolour,alfa,,,75,18,V,R,
345,93,9,8,2,53,27,532,['c'],1,left,['0'],6,178,[0.06381465],80,53,easy,minus,dotcolour,alfa,,,75,18,V,R,
346,94,10,8,2,44,36,847,['c'],1,left,['9'],5,170,[0.06744479],81,44,hard,minus,dotcolour,alfa,,,75,18,V,R,
347,95,11,8,2,27,53,564,['n'],1,right,['0'],6,142,[-0.1205491],95,53,easy,minus,dotcolour,alfa,,,75,18,V,R,
348,96,12,8,2,33,47,716,['n'],1,right,['0'],6,196,[-0.16520414],97,47,medium,minus,dotcolour,alfa,,,75,18,V,R,
349,97,13,8,2,33,47,932,['n'],1,right,['9'],5,137,[-0.13327478],96,47,medium,minus,dotcolour,alfa,,,75,18,V,R,
350,98,14,8,2,47,33,766,['c'],1,left,['0'],6,214,[0.04671827],71,47,medium,minus,dotcolour,alfa,,,75,18,V,R,
351,99,15,8,2,53,27,1317,['c'],1,left,['9'],5,650,[0.03635683],60,53,easy,minus,dotcolour,alfa,,,75,18,V,R,
352,100,16,8,2,27,53,548,['n'],1,right,['0'],6,194,[-0.15143715],96,53,easy,minus,dotcolour,alfa,,,75,18,V,R,
353,101,17,8,2,44,36,765,['c'],1,left,['9'],5,517,[0.07510625],72,44,hard,minus,dotcolour,alfa,,,75,18,V,R,
354,102,18,8,2,47,33,680,['c'],1,left,['9'],5,207,[0.04961295],73,47,medium,minus,dotcolour,alfa,,,75,18,V,R,
355,103,19,8,2,27,53,665,['n'],1,right,['9'],5,85,[-0.07380367],91,53,easy,minus,dotcolour,alfa,,,75,18,V,R,
356,104,20,8,2,33,47,549,['n'],1,right,['9'],5,229,[-0.01721902],58,47,medium,minus,dotcolour,alfa,,,75,18,V,R,
357,105,21,8,2,36,44,932,['c'],0,right,['9'],5,184,[0.07015454],81,44,hard,minus,dotcolour,alfa,,,75,18,V,R,
358,106,22,8,2,47,33,483,['c'],1,left,['9'],5,166,[0.13041362],95,47,medium,minus,dotcolour,alfa,,,75,18,V,R,
359,107,23,8,2,44,36,781,['c'],1,left,['9'],5,121,[0.06024707],83,44,hard,minus,dotcolour,alfa,,,75,18,V,R,
360,108,24,8,2,47,33,766,['c'],1,left,['9'],5,128,[0.04354056],75,47,medium,minus,dotcolour,alfa,,,75,18,V,R,
361,109,25,8,2,44,36,782,['c'],1,left,['9'],5,140,[0.09101849],90,44,hard,minus,dotcolour,alfa,,,75,18,V,R,
362,110,26,8,2,36,44,849,['n'],1,right,['9'],5,78,[-0.07246491],91,44,hard,minus,dotcolour,alfa,,,75,18,V,R,
363,111,27,8,2,33,47,650,['n'],1,right,['9'],5,131,[-0.1314071],96,47,medium,minus,dotcolour,alfa,,,75,18,V,R,
364,112,28,8,2,33,47,897,['n'],1,right,['9'],5,626,[-0.30471244],97,47,medium,minus,dotcolour,alfa,,,75,18,V,R,
365,113,29,8,2,36,44,465,['n'],1,right,['9'],5,384,[-0.07028646],74,44,hard,minus,dotcolour,alfa,,,75,18,V,R,
366,114,30,8,2,44,36,782,['c'],1,left,['9'],5,162,[0.06382188],81,44,hard,minus,dotcolour,alfa,,,75,18,V,R,
367,115,31,8,2,36,44,999,['n'],1,right,['9'],5,149,[-0.06214146],81,44,hard,minus,dotcolour,alfa,,,75,18,V,R,
368,116,32,8,2,47,33,817,['c'],1,left,['9'],5,136,[0.13265857],96,47,medium,minus,dotcolour,alfa,,,75,18,V,R,
369,117,33,8,2,44,36,800,['n'],0,left,['9'],5,163,[-0.12193815],94,44,hard,minus,dotcolour,alfa,,,75,18,V,R,
370,118,34,8,2,53,27,465,['c'],1,left,['9'],5,163,[0.05755468],78,53,easy,minus,dotcolour,alfa,,,75,18,V,R,
371,119,35,8,2,27,53,766,['n'],1,right,['9'],5,111,[-0.07799503],89,53,easy,minus,dotcolour,alfa,,,75,18,V,R,
372,120,36,8,2,33,47,599,['n'],1,right,['9'],5,116,[-0.07806819],89,47,medium,minus,dotcolour,alfa,,,75,18,V,R,
373,121,37,8,2,27,53,515,['n'],1,right,['9'],5,140,[-0.04990746],77,53,easy,minus,dotcolour,alfa,,,75,18,V,R,
374,122,38,8,2,27,53,615,['n'],1,right,['9'],5,151,[-0.09550236],90,53,easy,minus,dotcolour,alfa,,,75,18,V,R,
375,123,39,8,2,33,47,466,['n'],1,right,['0'],6,551,[-0.1403802],85,47,medium,minus,dotcolour,alfa,,,75,18,V,R,
376,124,40,8,2,53,27,497,['c'],1,left,['0'],6,247,[0.15967197],95,53,easy,minus,dotcolour,alfa,,,75,18,V,R,
377,125,41,8,2,44,36,932,['c'],1,left,['0'],6,361,[0.12710316],87,44,hard,minus,dotcolour,alfa,,,75,18,V,R,
378,0,0,9,3,53,27,483,['n'],0,left,['1'],1,769,[0.03393602],20,53,easy,plus,dotcolour,alfa,,,75,18,V,R,
379,1,1,9,3,33,47,464,['n'],1,right,['0'],6,128,[-0.04126691],98,47,medium,plus,dotcolour,alfa,,,75,18,V,R,
380,2,2,9,3,53,27,516,['c'],1,left,['0'],6,79,[0.11536409],100,53,easy,plus,dotcolour,alfa,,,75,18,V,R,
381,3,3,9,3,47,33,764,['n'],0,left,['0'],6,183,[-0.00147323],53,47,medium,plus,dotcolour,alfa,,,75,18,V,R,
382,4,4,9,3,33,47,515,['n'],1,right,['0'],6,92,[-0.00913083],75,47,medium,plus,dotcolour,alfa,,,75,18,V,R,
383,5,5,9,3,53,27,465,['c'],1,left,['0'],6,95,[0.08458901],100,53,easy,plus,dotcolour,alfa,,,75,18,V,R,
384,6,6,9,3,47,33,648,['n'],0,left,['0'],6,50,[-0.04069509],100,47,medium,plus,dotcolour,alfa,,,75,18,V,R,
385,7,7,9,3,47,33,464,['c'],1,left,['9'],5,631,[0.2561056],100,47,medium,plus,dotcolour,alfa,,,75,18,V,R,
386,8,8,9,3,53,27,430,['c'],1,left,['0'],6,109,[0.09383296],100,53,easy,plus,dotcolour,alfa,,,75,18,V,R,
387,9,9,9,3,44,36,533,['n'],0,left,['9'],5,180,[-0.07219746],100,44,hard,plus,dotcolour,alfa,,,75,18,V,R,
388,10,10,9,3,36,44,916,['c'],0,right,['9'],5,90,[0.0560257],100,44,hard,plus,dotcolour,alfa,,,75,18,V,R,
389,11,11,9,3,47,33,383,['c'],1,left,['9'],5,256,[0.15181657],100,47,medium,plus,dotcolour,alfa,,,75,18,V,R,
390,12,12,9,3,27,53,416,['c'],0,right,['1'],1,623,[0.07765461],97,53,easy,plus,dotcolour,alfa,,,75,18,V,R,
391,13,13,9,3,36,44,765,['n'],1,right,['9'],5,128,[-0.07326999],100,44,hard,plus,dotcolour,alfa,,,75,18,V,R,
392,14,14,9,3,44,36,631,['n'],0,left,['9'],5,994,[0.01214314],39,44,hard,plus,dotcolour,alfa,,,75,18,V,R,
393,15,15,9,3,44,36,517,['n'],0,left,['2'],2,200,[-0.11048848],100,44,hard,plus,dotcolour,alfa,,,75,18,V,R,
394,16,16,9,3,53,27,831,['n'],0,left,['9'],5,263,[-0.04243005],95,53,easy,plus,dotcolour,alfa,,,75,18,V,R,
395,17,17,9,3,33,47,464,['n'],1,right,['0'],6,99,[-0.15573453],100,47,medium,plus,dotcolour,alfa,,,75,18,V,R,
396,18,18,9,3,44,36,866,['c'],1,left,['9'],5,94,[0.06901391],100,44,hard,plus,dotcolour,alfa,,,75,18,V,R,
397,19,19,9,3,44,36,798,['c'],1,left,['9'],5,923,[0.28332195],100,44,hard,plus,dotcolour,alfa,,,75,18,V,R,
398,20,20,9,3,33,47,648,['n'],1,right,['0'],6,317,[-0.09776812],100,47,medium,plus,dotcolour,alfa,,,75,18,V,R,
399,21,21,9,3,53,27,565,['c'],1,left,['9'],5,970,[0.33923719],100,53,easy,plus,dotcolour,alfa,,,75,18,V,R,
400,22,22,9,3,33,47,932,['n'],1,right,['9'],5,511,[-0.24038953],100,47,medium,plus,dotcolour,alfa,,,75,18,V,R,
401,23,23,9,3,27,53,496,['n'],1,right,['9'],5,88,[-0.06015664],100,53,easy,plus,dotcolour,alfa,,,75,18,V,R,
402,24,24,9,3,47,33,1115,['c'],1,left,['9'],5,537,[0.1179211],100,47,medium,plus,dotcolour,alfa,,,75,18,V,R,
403,25,25,9,3,36,44,1349,['n'],1,right,['9'],5,159,[-0.02188796],88,44,hard,plus,dotcolour,alfa,,,75,18,V,R,
404,26,26,9,3,44,36,682,['n'],0,left,['9'],5,117,[-0.0210985],90,44,hard,plus,dotcolour,alfa,,,75,18,V,R,
405,27,27,9,3,36,44,732,['n'],1,right,['9'],5,133,[-0.00894362],71,44,hard,plus,dotcolour,alfa,,,75,18,V,R,
406,28,28,9,3,27,53,549,['n'],1,right,['9'],5,107,[-0.02670204],95,53,easy,plus,dotcolour,alfa,,,75,18,V,R,
407,29,29,9,3,44,36,982,['n'],0,left,['9'],5,128,[-0.10080454],100,44,hard,plus,dotcolour,alfa,,,75,18,V,R,
408,30,30,9,3,33,47,917,['c'],0,right,['9'],5,56,[0.03733639],100,47,medium,plus,dotcolour,alfa,,,75,18,V,R,
409,31,31,9,3,47,33,899,['c'],1,left,['9'],5,67,[0.09630352],100,47,medium,plus,dotcolour,alfa,,,75,18,V,R,
410,32,32,9,3,27,53,716,['n'],1,right,['9'],5,141,[-0.110277],100,53,easy,plus,dotcolour,alfa,,,75,18,V,R,
411,33,33,9,3,47,33,716,['c'],1,left,['9'],5,132,[0.0642037],100,47,medium,plus,dotcolour,alfa,,,75,18,V,R,
412,34,34,9,3,33,47,1083,['n'],1,right,['9'],5,124,[-0.11793608],100,47,medium,plus,dotcolour,alfa,,,75,18,V,R,
413,35,35,9,3,27,53,715,['n'],1,right,['9'],5,116,[-0.08332055],100,53,easy,plus,dotcolour,alfa,,,75,18,V,R,
414,36,36,9,3,27,53,467,['n'],1,right,['0'],6,158,[-0.08430528],100,53,easy,plus,dotcolour,alfa,,,75,18,V,R,
415,37,37,9,3,36,44,716,['n'],1,right,['0'],6,116,[-0.04821459],99,44,hard,plus,dotcolour,alfa,,,75,18,V,R,
416,38,38,9,3,36,44,766,['n'],1,right,['9'],5,161,[-0.06435456],100,44,hard,plus,dotcolour,alfa,,,75,18,V,R,
417,39,39,9,3,36,44,482,['n'],1,right,['0'],6,145,[-0.07519416],100,44,hard,plus,dotcolour,alfa,,,75,18,V,R,
418,40,40,9,3,53,27,580,['c'],1,left,['9'],5,101,[0.06924512],100,53,easy,plus,dotcolour,alfa,,,75,18,V,R,
419,41,41,9,3,27,53,465,['n'],1,right,['0'],6,112,[-0.11640713],100,53,easy,plus,dotcolour,alfa,,,75,18,V,R,
420,42,0,10,3,36,44,565,['n'],1,right,['9'],5,125,[-0.10398402],100,44,hard,plus,dotcolour,alfa,,,75,18,V,R,
421,43,1,10,3,53,27,548,['c'],1,left,['9'],5,83,[0.03318117],98,53,easy,plus,dotcolour,alfa,,,75,18,V,R,
422,44,2,10,3,27,53,532,['n'],1,right,['9'],5,155,[-0.10789436],100,53,easy,plus,dotcolour,alfa,,,75,18,V,R,
423,45,3,10,3,47,33,515,['c'],1,left,['9'],5,106,[0.06383867],100,47,medium,plus,dotcolour,alfa,,,75,18,V,R,
424,46,4,10,3,47,33,699,['c'],1,left,['9'],5,130,[0.11728997],100,47,medium,plus,dotcolour,alfa,,,75,18,V,R,
425,47,5,10,3,47,33,583,['c'],1,left,['9'],5,87,[0.06649511],100,47,medium,plus,dotcolour,alfa,,,75,18,V,R,
426,48,6,10,3,53,27,500,['c'],1,left,['9'],5,89,[0.12503482],100,53,easy,plus,dotcolour,alfa,,,75,18,V,R,
427,49,7,10,3,44,36,781,['n'],0,left,['0'],6,104,[-0.07989961],100,44,hard,plus,dotcolour,alfa,,,75,18,V,R,
428,50,8,10,3,33,47,665,['n'],1,right,['0'],6,138,[-0.04159334],98,47,medium,plus,dotcolour,alfa,,,75,18,V,R,
429,51,9,10,3,44,36,382,['n'],0,left,['0'],6,303,[-0.1014331],100,44,hard,plus,dotcolour,alfa,,,75,18,V,R,
430,52,10,10,3,27,53,999,['n'],1,right,['9'],5,188,[-0.12291881],100,53,easy,plus,dotcolour,alfa,,,75,18,V,R,
431,53,11,10,3,33,47,1781,['n'],1,right,['9'],5,55,[-0.11087382],100,47,medium,plus,dotcolour,alfa,,,75,18,V,R,
432,54,12,10,3,27,53,399,['n'],1,right,['9'],5,78,[-0.047848],100,53,easy,plus,dotcolour,alfa,,,75,18,V,R,
433,55,13,10,3,47,33,1017,['c'],1,left,['0'],6,275,[0.10417469],100,47,medium,plus,dotcolour,alfa,,,75,18,V,R,
434,56,14,10,3,36,44,582,['n'],1,right,['9'],5,90,[-0.05697744],100,44,hard,plus,dotcolour,alfa,,,75,18,V,R,
435,57,15,10,3,27,53,448,['n'],1,right,['0'],6,374,[-0.13600011],100,53,easy,plus,dotcolour,alfa,,,75,18,V,R,
436,58,16,10,3,33,47,432,['n'],1,right,['9'],5,87,[-0.01179846],81,47,medium,plus,dotcolour,alfa,,,75,18,V,R,
437,59,17,10,3,33,47,1249,['c'],0,right,['9'],5,154,[0.02360601],90,47,medium,plus,dotcolour,alfa,,,75,18,V,R,
438,60,18,10,3,53,27,582,['n'],0,left,['9'],5,694,[0.09337115],2,53,easy,plus,dotcolour,alfa,,,75,18,V,R,
439,61,19,10,3,53,27,781,['n'],0,left,['9'],5,1324,[0.11254702],3,53,easy,plus,dotcolour,alfa,,,75,18,V,R,
440,62,20,10,3,53,27,584,['c'],1,left,['9'],5,873,[0.15781099],100,53,easy,plus,dotcolour,alfa,,,75,18,V,R,
441,63,21,10,3,44,36,683,['n'],0,left,['9'],5,123,[-0.03844759],98,44,hard,plus,dotcolour,alfa,,,75,18,V,R,
442,64,22,10,3,36,44,882,['c'],0,right,['8'],4,924,[-0.03324264],22,44,hard,plus,dotcolour,alfa,,,75,18,V,R,
443,65,23,10,3,47,33,381,['n'],0,left,['2'],2,1465,[0.01805013],37,47,medium,plus,dotcolour,alfa,,,75,18,V,R,
444,66,24,10,3,33,47,949,['c'],0,right,['3'],3,1473,[-0.0827655],8,47,medium,plus,dotcolour,alfa,,,75,18,V,R,
445,67,25,10,3,53,27,814,['c'],1,left,['9'],5,470,[0.26086706],100,53,easy,plus,dotcolour,alfa,,,75,18,V,R,
446,68,26,10,3,53,27,482,['c'],1,left,['9'],5,314,[0.08891532],100,53,easy,plus,dotcolour,alfa,,,75,18,V,R,
447,69,27,10,3,36,44,498,['n'],1,right,['9'],5,346,[-0.02947266],86,44,hard,plus,dotcolour,alfa,,,75,18,V,R,
448,70,28,10,3,47,33,915,['c'],1,left,['2'],2,1121,[0.26305698],100,47,medium,plus,dotcolour,alfa,,,75,18,V,R,
449,71,29,10,3,36,44,747,['n'],1,right,['0'],6,63,[-0.07194044],100,44,hard,plus,dotcolour,alfa,,,75,18,V,R,
450,72,30,10,3,33,47,681,['n'],1,right,['0'],6,114,[-0.08956881],100,47,medium,plus,dotcolour,alfa,,,75,18,V,R,
451,73,31,10,3,27,53,480,['n'],1,right,['0'],6,60,[-0.09641038],100,53,easy,plus,dotcolour,alfa,,,75,18,V,R,
452,74,32,10,3,44,36,732,['c'],1,left,['9'],5,149,[0.01567517],81,44,hard,plus,dotcolour,alfa,,,75,18,V,R,
453,75,33,10,3,33,47,566,['n'],1,right,['0'],6,138,[-0.07781283],100,47,medium,plus,dotcolour,alfa,,,75,18,V,R,
454,76,34,10,3,27,53,1581,['n'],1,right,['0'],6,543,[-0.1473248],100,53,easy,plus,dotcolour,alfa,,,75,18,V,R,
455,77,35,10,3,47,33,1016,['c'],1,left,['0'],6,90,[0.07967703],100,47,medium,plus,dotcolour,alfa,,,75,18,V,R,
456,78,36,10,3,27,53,501,['n'],1,right,['0'],6,107,[-0.10854068],100,53,easy,plus,dotcolour,alfa,,,75,18,V,R,
457,79,37,10,3,36,44,582,['n'],1,right,['9'],5,185,[-0.04816361],98,44,hard,plus,dotcolour,alfa,,,75,18,V,R,
458,80,38,10,3,44,36,649,['c'],1,left,['9'],5,153,[0.11090654],100,44,hard,plus,dotcolour,alfa,,,75,18,V,R,
459,81,39,10,3,44,36,949,['n'],0,left,['9'],5,150,[-0.03958016],98,44,hard,plus,dotcolour,alfa,,,75,18,V,R,
460,82,40,10,3,44,36,930,['c'],1,left,['9'],5,132,[0.09085477],100,44,hard,plus,dotcolour,alfa,,,75,18,V,R,
461,83,41,10,3,36,44,516,['n'],1,right,['9'],5,131,[-0.07020783],100,44,hard,plus,dotcolour,alfa,,,75,18,V,R,
462,84,0,11,3,44,36,1033,['n'],0,left,['0'],6,433,[0.08909043],1,44,hard,plus,dotcolour,alfa,,,75,18,V,R,
463,85,1,11,3,27,53,617,['n'],1,right,['0'],6,96,[-0.15261813],100,53,easy,plus,dotcolour,alfa,,,75,18,V,R,
464,86,2,11,3,36,44,467,['n'],1,right,['0'],6,187,[-0.10183917],100,44,hard,plus,dotcolour,alfa,,,75,18,V,R,
465,87,3,11,3,36,44,449,['n'],1,right,['0'],6,139,[-0.07824731],100,44,hard,plus,dotcolour,alfa,,,75,18,V,R,
466,88,4,11,3,36,44,447,['n'],1,right,['0'],6,149,[-0.09563789],100,44,hard,plus,dotcolour,alfa,,,75,18,V,R,
467,89,5,11,3,36,44,600,['n'],1,right,['0'],6,137,[-0.04682509],99,44,hard,plus,dotcolour,alfa,,,75,18,V,R,
468,90,6,11,3,44,36,499,['c'],1,left,['0'],6,112,[0.09169856],100,44,hard,plus,dotcolour,alfa,,,75,18,V,R,
469,91,7,11,3,47,33,816,['c'],1,left,['0'],6,84,[0.13261074],100,47,medium,plus,dotcolour,alfa,,,75,18,V,R,
470,92,8,11,3,44,36,1133,['c'],1,left,['9'],5,109,[0.07380842],100,44,hard,plus,dotcolour,alfa,,,75,18,V,R,
471,93,9,11,3,33,47,566,['n'],1,right,['0'],6,130,[-0.05753882],100,47,medium,plus,dotcolour,alfa,,,75,18,V,R,
472,94,10,11,3,47,33,531,['n'],0,left,['0'],6,145,[-0.02072329],88,47,medium,plus,dotcolour,alfa,,,75,18,V,R,
473,95,11,11,3,33,47,618,['n'],1,right,['0'],6,108,[-0.02538595],94,47,medium,plus,dotcolour,alfa,,,75,18,V,R,
474,96,12,11,3,36,44,566,['n'],1,right,['0'],6,130,[-0.07591726],100,44,hard,plus,dotcolour,alfa,,,75,18,V,R,
475,97,13,11,3,53,27,749,['c'],1,left,['0'],6,168,[0.09350269],100,53,easy,plus,dotcolour,alfa,,,75,18,V,R,
476,98,14,11,3,27,53,515,['n'],1,right,['0'],6,86,[-0.11114452],100,53,easy,plus,dotcolour,alfa,,,75,18,V,R,
477,99,15,11,3,27,53,482,['c'],0,right,['1'],1,1088,[-0.17323569],0,53,easy,plus,dotcolour,alfa,,,75,18,V,R,
478,100,16,11,3,47,33,1048,['c'],1,left,['8'],4,875,[0.11304209],99,47,medium,plus,dotcolour,alfa,,,75,18,V,R,
479,101,17,11,3,44,36,1297,['c'],1,left,['0'],6,165,[0.08335596],100,44,hard,plus,dotcolour,alfa,,,75,18,V,R,
480,102,18,11,3,53,27,515,['c'],1,left,['0'],6,116,[0.11284301],100,53,easy,plus,dotcolour,alfa,,,75,18,V,R,
481,103,19,11,3,33,47,499,['n'],1,right,['0'],6,140,[-0.06216593],100,47,medium,plus,dotcolour,alfa,,,75,18,V,R,
482,104,20,11,3,36,44,899,['c'],0,right,['9'],5,252,[0.06734277],99,44,hard,plus,dotcolour,alfa,,,75,18,V,R,
483,105,21,11,3,27,53,566,['n'],1,right,['0'],6,124,[-0.093231],100,53,easy,plus,dotcolour,alfa,,,75,18,V,R,
484,106,22,11,3,53,27,566,['c'],1,left,['9'],5,154,[0.09140357],100,53,easy,plus,dotcolour,alfa,,,75,18,V,R,
485,107,23,11,3,44,36,1349,['c'],1,left,['9'],5,135,[0.12756006],100,44,hard,plus,dotcolour,alfa,,,75,18,V,R,
486,108,24,11,3,53,27,564,['c'],1,left,['9'],5,108,[0.02812746],96,53,easy,plus,dotcolour,alfa,,,75,18,V,R,
487,109,25,11,3,44,36,815,['c'],1,left,['9'],5,152,[0.0944877],100,44,hard,plus,dotcolour,alfa,,,75,18,V,R,
488,110,26,11,3,33,47,1016,['n'],1,right,['9'],5,146,[-0.09888392],100,47,medium,plus,dotcolour,alfa,,,75,18,V,R,
489,111,27,11,3,53,27,616,['c'],1,left,['9'],5,158,[0.08917149],100,53,easy,plus,dotcolour,alfa,,,75,18,V,R,
490,112,28,11,3,27,53,600,['n'],1,right,['9'],5,88,[-0.12362578],100,53,easy,plus,dotcolour,alfa,,,75,18,V,R,
491,113,29,11,3,47,33,682,['c'],1,left,['9'],5,154,[0.07040433],100,47,medium,plus,dotcolour,alfa,,,75,18,V,R,
492,114,30,11,3,47,33,782,['c'],1,left,['9'],5,86,[0.07649696],100,47,medium,plus,dotcolour,alfa,,,75,18,V,R,
493,115,31,11,3,33,47,980,['n'],1,right,['9'],5,132,[-0.06657141],100,47,medium,plus,dotcolour,alfa,,,75,18,V,R,
494,116,32,11,3,53,27,648,['c'],1,left,['9'],5,166,[0.12259715],100,53,easy,plus,dotcolour,alfa,,,75,18,V,R,
495,117,33,11,3,33,47,798,['n'],1,right,['9'],5,81,[-0.0456938],100,47,medium,plus,dotcolour,alfa,,,75,18,V,R,
496,118,34,11,3,47,33,864,['c'],1,left,['9'],5,164,[0.07971983],100,47,medium,plus,dotcolour,alfa,,,75,18,V,R,
497,119,35,11,3,27,53,516,['n'],1,right,['9'],5,123,[-0.14993003],100,53,easy,plus,dotcolour,alfa,,,75,18,V,R,
498,120,36,11,3,53,27,599,['c'],1,left,['9'],5,119,[0.11030476],100,53,easy,plus,dotcolour,alfa,,,75,18,V,R,
499,121,37,11,3,27,53,583,['n'],1,right,['0'],6,172,[-0.12300034],100,53,easy,plus,dotcolour,alfa,,,75,18,V,R,
500,122,38,11,3,44,36,664,['c'],1,left,['0'],6,188,[0.08714746],100,44,hard,plus,dotcolour,alfa,,,75,18,V,R,
501,123,39,11,3,33,47,517,['n'],1,right,['0'],6,114,[-0.10879839],100,47,medium,plus,dotcolour,alfa,,,75,18,V,R,
502,124,40,11,3,36,44,817,['c'],0,right,['0'],6,446,[-0.03232175],15,44,hard,plus,dotcolour,alfa,,,75,18,V,R,
503,125,41,11,3,47,33,717,['c'],1,left,['9'],5,152,[0.08750721],100,47,medium,plus,dotcolour,alfa,,,75,18,V,R,
504,0,0,12,4,44,36,916,['n'],0,left,['0'],6,130,[-0.11980898],95,44,hard,minus,dotcolour,alfa,,,75,18,V,R,
505,1,1,12,4,27,53,449,['n'],1,right,['0'],6,132,[-0.06698071],84,53,easy,minus,dotcolour,alfa,,,75,18,V,R,
506,2,2,12,4,27,53,600,['n'],1,right,['0'],6,96,[-0.14910438],99,53,easy,minus,dotcolour,alfa,,,75,18,V,R,
507,3,3,12,4,44,36,530,['c'],1,left,['0'],6,1464,[0.22050272],84,44,hard,minus,dotcolour,alfa,,,75,18,V,R,
508,4,4,12,4,36,44,431,['n'],1,right,['0'],6,93,[-0.1102902],96,44,hard,minus,dotcolour,alfa,,,75,18,V,R,
509,5,5,12,4,47,33,682,['c'],1,left,['0'],6,95,[0.0421954],77,47,medium,minus,dotcolour,alfa,,,75,18,V,R,
510,6,6,12,4,47,33,565,['c'],1,left,['0'],6,133,[0.11079953],94,47,medium,minus,dotcolour,alfa,,,75,18,V,R,
511,7,7,12,4,44,36,582,['n'],0,left,['0'],6,362,[-0.03508531],63,44,hard,minus,dotcolour,alfa,,,75,18,V,R,
512,8,8,12,4,27,53,514,['n'],1,right,['0'],6,72,[-0.04672504],83,53,easy,minus,dotcolour,alfa,,,75,18,V,R,
513,9,9,12,4,33,47,866,['n'],1,right,['0'],6,76,[-0.09725741],96,47,medium,minus,dotcolour,alfa,,,75,18,V,R,
514,10,10,12,4,47,33,517,['c'],1,left,['0'],6,141,[0.03207557],68,47,medium,minus,dotcolour,alfa,,,75,18,V,R,
515,11,11,12,4,44,36,783,['c'],1,left,['0'],6,122,[0.11215337],95,44,hard,minus,dotcolour,alfa,,,75,18,V,R,
516,12,12,12,4,36,44,847,['n'],1,right,['0'],6,149,[-0.09966217],91,44,hard,minus,dotcolour,alfa,,,75,18,V,R,
517,13,13,12,4,47,33,632,['c'],1,left,['0'],6,94,[0.05817868],85,47,medium,minus,dotcolour,alfa,,,75,18,V,R,
518,14,14,12,4,27,53,533,['n'],1,right,['0'],6,126,[-0.02278587],64,53,easy,minus,dotcolour,alfa,,,75,18,V,R,
519,15,15,12,4,36,44,731,['n'],1,right,['0'],6,213,[-0.06657207],79,44,hard,minus,dotcolour,alfa,,,75,18,V,R,
520,16,16,12,4,53,27,565,['c'],1,left,['0'],6,95,[0.04841062],80,53,easy,minus,dotcolour,alfa,,,75,18,V,R,
521,17,17,12,4,53,27,582,['c'],1,left,['0'],6,77,[0.09751731],96,53,easy,minus,dotcolour,alfa,,,75,18,V,R,
522,18,18,12,4,33,47,765,['n'],1,right,['0'],6,84,[-0.09811227],95,47,medium,minus,dotcolour,alfa,,,75,18,V,R,
523,19,19,12,4,53,27,680,['c'],1,left,['0'],6,183,[0.13653689],95,53,easy,minus,dotcolour,alfa,,,75,18,V,R,
524,20,20,12,4,36,44,532,['n'],1,right,['0'],6,155,[-0.04325486],73,44,hard,minus,dotcolour,alfa,,,75,18,V,R,
525,21,21,12,4,53,27,582,['c'],1,left,['0'],6,111,[0.12984697],97,53,easy,minus,dotcolour,alfa,,,75,18,V,R,
526,22,22,12,4,47,33,1017,['c'],1,left,['9'],5,163,[0.1235548],94,47,medium,minus,dotcolour,alfa,,,75,18,V,R,
527,23,23,12,4,53,27,582,['c'],1,left,['9'],5,55,[0.06920675],93,53,easy,minus,dotcolour,alfa,,,75,18,V,R,
528,24,24,12,4,27,53,514,['n'],1,right,['0'],6,162,[-0.09077395],88,53,easy,minus,dotcolour,alfa,,,75,18,V,R,
529,25,25,12,4,33,47,1382,['n'],1,right,['9'],5,156,[-0.08281906],87,47,medium,minus,dotcolour,alfa,,,75,18,V,R,
530,26,26,12,4,33,47,582,['n'],1,right,['0'],6,137,[-0.05485109],79,47,medium,minus,dotcolour,alfa,,,75,18,V,R,
531,27,27,12,4,44,36,733,['c'],1,left,['9'],5,119,[0.10396575],94,44,hard,minus,dotcolour,alfa,,,75,18,V,R,
532,28,28,12,4,36,44,1047,['c'],0,right,['9'],5,130,[0.06389924],83,44,hard,minus,dotcolour,alfa,,,75,18,V,R,
533,29,29,12,4,47,33,682,['c'],1,left,['9'],5,235,[0.0839952],83,47,medium,minus,dotcolour,alfa,,,75,18,V,R,
534,30,30,12,4,44,36,532,['c'],1,left,['9'],5,85,[0.1208748],98,44,hard,minus,dotcolour,alfa,,,75,18,V,R,
535,31,31,12,4,27,53,601,['n'],1,right,['9'],5,83,[-0.12505257],98,53,easy,minus,dotcolour,alfa,,,75,18,V,R,
536,32,32,12,4,53,27,717,['c'],1,left,['9'],5,85,[0.05881066],86,53,easy,minus,dotcolour,alfa,,,75,18,V,R,
537,33,33,12,4,33,47,1098,['n'],1,right,['9'],5,127,[-0.09587047],92,47,medium,minus,dotcolour,alfa,,,75,18,V,R,
538,34,34,12,4,36,44,816,['n'],1,right,['9'],5,146,[-0.05900482],80,44,hard,minus,dotcolour,alfa,,,75,18,V,R,
539,35,35,12,4,44,36,698,['c'],1,left,['9'],5,145,[0.07083935],84,44,hard,minus,dotcolour,alfa,,,75,18,V,R,
540,36,36,12,4,47,33,1265,['c'],1,left,['9'],5,586,[0.12403425],81,47,medium,minus,dotcolour,alfa,,,75,18,V,R,
541,37,37,12,4,53,27,566,['c'],1,left,['9'],5,84,[0.07110623],90,53,easy,minus,dotcolour,alfa,,,75,18,V,R,
542,38,38,12,4,33,47,533,['n'],1,right,['9'],5,133,[-0.07609091],87,47,medium,minus,dotcolour,alfa,,,75,18,V,R,
543,39,39,12,4,36,44,663,['n'],1,right,['9'],5,126,[-0.11039578],94,44,hard,minus,dotcolour,alfa,,,75,18,V,R,
544,40,40,12,4,33,47,599,['n'],1,right,['9'],5,130,[-0.08386922],89,47,medium,minus,dotcolour,alfa,,,75,18,V,R,
545,41,41,12,4,27,53,698,['n'],1,right,['9'],5,106,[-0.12891857],97,53,easy,minus,dotcolour,alfa,,,75,18,V,R,
546,42,0,13,4,53,27,616,['c'],1,left,['9'],5,135,[0.13729694],97,53,easy,minus,dotcolour,alfa,,,75,18,V,R,
547,43,1,13,4,53,27,483,['c'],1,left,['9'],5,48,[0.07498714],96,53,easy,minus,dotcolour,alfa,,,75,18,V,R,
548,44,2,13,4,33,47,532,['n'],1,right,['9'],5,114,[-0.07570516],88,47,medium,minus,dotcolour,alfa,,,75,18,V,R,
549,45,3,13,4,33,47,599,['n'],1,right,['9'],5,118,[-0.06582235],85,47,medium,minus,dotcolour,alfa,,,75,18,V,R,
550,46,4,13,4,27,53,483,['n'],1,right,['9'],5,119,[-0.08655614],91,53,easy,minus,dotcolour,alfa,,,75,18,V,R,
551,47,5,13,4,36,44,397,['n'],1,right,['9'],5,140,[-0.0599738],81,44,hard,minus,dotcolour,alfa,,,75,18,V,R,
552,48,6,13,4,36,44,383,['n'],1,right,['9'],5,113,[-0.09243623],92,44,hard,minus,dotcolour,alfa,,,75,18,V,R,
553,49,7,13,4,36,44,381,['n'],1,right,['9'],5,142,[-0.11595367],94,44,hard,minus,dotcolour,alfa,,,75,18,V,R,
554,50,8,13,4,36,44,699,['c'],0,right,['9'],5,357,[0.05172318],69,44,hard,minus,dotcolour,alfa,,,75,18,V,R,
555,51,9,13,4,36,44,464,['n'],1,right,['0'],6,166,[-0.07756236],85,44,hard,minus,dotcolour,alfa,,,75,18,V,R,
556,52,10,13,4,53,27,448,['c'],1,left,['9'],5,70,[0.08471965],95,53,easy,minus,dotcolour,alfa,,,75,18,V,R,
557,53,11,13,4,44,36,549,['n'],0,left,['9'],5,87,[-0.03941514],77,44,hard,minus,dotcolour,alfa,,,75,18,V,R,
558,54,12,13,4,36,44,582,['n'],1,right,['9'],5,85,[-0.06265178],87,44,hard,minus,dotcolour,alfa,,,75,18,V,R,
559,55,13,13,4,47,33,516,['c'],1,left,['9'],5,87,[0.1250284],98,47,medium,minus,dotcolour,alfa,,,75,18,V,R,
560,56,14,13,4,44,36,416,['n'],0,left,['9'],5,107,[-0.07245713],88,44,hard,minus,dotcolour,alfa,,,75,18,V,R,
561,57,15,13,4,47,33,464,['c'],1,left,['9'],5,142,[0.08476976],88,47,medium,minus,dotcolour,alfa,,,75,18,V,R,
562,58,16,13,4,44,36,515,['c'],1,left,['0'],6,61,[0.062478],91,44,hard,minus,dotcolour,alfa,,,75,18,V,R,
563,59,17,13,4,33,47,547,['n'],1,right,['0'],6,45,[-0.06678391],94,47,medium,minus,dotcolour,alfa,,,75,18,V,R,
564,60,18,13,4,47,33,447,['c'],1,left,['0'],6,67,[0.08011413],94,47,medium,minus,dotcolour,alfa,,,75,18,V,R,
565,61,19,13,4,27,53,516,['n'],1,right,['0'],6,125,[-0.1275639],96,53,easy,minus,dotcolour,alfa,,,75,18,V,R,
566,62,20,13,4,53,27,449,['c'],1,left,['0'],6,119,[0.09197257],92,53,easy,minus,dotcolour,alfa,,,75,18,V,R,
567,63,21,13,4,27,53,433,['n'],1,right,['0'],6,82,[-0.07112671],90,53,easy,minus,dotcolour,alfa,,,75,18,V,R,
568,64,22,13,4,33,47,467,['c'],0,right,['0'],6,102,[0.02337126],66,47,medium,minus,dotcolour,alfa,,,75,18,V,R,
569,65,23,13,4,44,36,567,['c'],1,left,['0'],6,83,[0.13328321],98,44,hard,minus,dotcolour,alfa,,,75,18,V,R,
570,66,24,13,4,47,33,499,['c'],1,left,['0'],6,118,[0.1279306],97,47,medium,minus,dotcolour,alfa,,,75,18,V,R,
571,67,25,13,4,44,36,764,['c'],1,left,['0'],6,164,[0.03740628],70,44,hard,minus,dotcolour,alfa,,,75,18,V,R,
572,68,26,13,4,33,47,414,['n'],1,right,['0'],6,38,[-0.06468554],95,47,medium,minus,dotcolour,alfa,,,75,18,V,R,
573,69,27,13,4,36,44,1248,['n'],1,right,['0'],6,60,[-0.07287535],94,44,hard,minus,dotcolour,alfa,,,75,18,V,R,
574,70,28,13,4,44,36,666,['c'],1,left,['0'],6,32,[0.06437294],96,44,hard,minus,dotcolour,alfa,,,75,18,V,R,
575,71,29,13,4,47,33,632,['c'],1,left,['0'],6,118,[0.13695025],97,47,medium,minus,dotcolour,alfa,,,75,18,V,R,
576,72,30,13,4,53,27,532,['c'],1,left,['0'],6,78,[0.09669221],96,53,easy,minus,dotcolour,alfa,,,75,18,V,R,
577,73,31,13,4,44,36,747,['c'],1,left,['0'],6,62,[0.10602547],98,44,hard,minus,dotcolour,alfa,,,75,18,V,R,
578,74,32,13,4,33,47,781,['n'],1,right,['0'],6,117,[-0.0692175],86,47,medium,minus,dotcolour,alfa,,,75,18,V,R,
579,75,33,13,4,53,27,516,['c'],1,left,['0'],6,37,[0.11195929],99,53,easy,minus,dotcolour,alfa,,,75,18,V,R,
580,76,34,13,4,27,53,567,['n'],1,right,['0'],6,142,[-0.08528546],88,53,easy,minus,dotcolour,alfa,,,75,18,V,R,
581,77,35,13,4,47,33,781,['c'],1,left,['0'],6,450,[0.18577122],92,47,medium,minus,dotcolour,alfa,,,75,18,V,R,
582,78,36,13,4,27,53,649,['n'],1,right,['0'],6,191,[-0.00511688],53,53,easy,minus,dotcolour,alfa,,,75,18,V,R,
583,79,37,13,4,27,53,666,['c'],0,right,['1'],1,766,[0.02136021],55,53,easy,minus,dotcolour,alfa,,,75,18,V,R,
584,80,38,13,4,27,53,465,['n'],1,right,['0'],6,101,[-0.07147555],88,53,easy,minus,dotcolour,alfa,,,75,18,V,R,
585,81,39,13,4,47,33,531,['c'],1,left,['0'],6,117,[0.11628018],96,47,medium,minus,dotcolour,alfa,,,75,18,V,R,
586,82,40,13,4,33,47,482,['n'],1,right,['0'],6,87,[-0.08293007],93,47,medium,minus,dotcolour,alfa,,,75,18,V,R,
587,83,41,13,4,53,27,700,['c'],1,left,['0'],6,88,[0.10479265],96,53,easy,minus,dotcolour,alfa,,,75,18,V,R,
588,84,0,14,4,33,47,799,['n'],1,right,['0'],6,113,[-0.09817076],93,47,medium,minus,dotcolour,alfa,,,75,18,V,R,
589,85,1,14,4,44,36,516,['c'],1,left,['0'],6,90,[0.07277483],90,44,hard,minus,dotcolour,alfa,,,75,18,V,R,
590,86,2,14,4,47,33,584,['c'],1,left,['0'],6,112,[0.16077157],99,47,medium,minus,dotcolour,alfa,,,75,18,V,R,
591,87,3,14,4,27,53,449,['n'],1,right,['0'],6,50,[-0.09232153],98,53,easy,minus,dotcolour,alfa,,,75,18,V,R,
592,88,4,14,4,33,47,448,['n'],1,right,['0'],6,48,[-0.05938017],92,47,medium,minus,dotcolour,alfa,,,75,18,V,R,
593,89,5,14,4,33,47,433,['n'],1,right,['9'],5,46,[-0.05537703],91,47,medium,minus,dotcolour,alfa,,,75,18,V,R,
594,90,6,14,4,36,44,448,['n'],1,right,['8'],4,163,[-0.12768361],95,44,hard,minus,dotcolour,alfa,,,75,18,V,R,
595,91,7,14,4,44,36,933,['n'],0,left,['2'],2,400,[-0.05154724],68,44,hard,minus,dotcolour,alfa,,,75,18,V,R,
596,92,8,14,4,53,27,515,['c'],1,left,['9'],5,93,[0.07697561],91,53,easy,minus,dotcolour,alfa,,,75,18,V,R,
597,93,9,14,4,27,53,1314,['n'],1,right,['8'],4,174,[-0.08358164],86,53,easy,minus,dotcolour,alfa,,,75,18,V,R,
598,94,10,14,4,33,47,448,['n'],1,right,['9'],5,86,[-0.03364973],74,47,medium,minus,dotcolour,alfa,,,75,18,V,R,
599,95,11,14,4,27,53,549,['n'],1,right,['9'],5,46,[-0.05982535],92,53,easy,minus,dotcolour,alfa,,,75,18,V,R,
600,96,12,14,4,53,27,582,['c'],1,left,['9'],5,78,[0.09611735],96,53,easy,minus,dotcolour,alfa,,,75,18,V,R,
601,97,13,14,4,47,33,715,['c'],1,left,['9'],5,55,[0.06208911],92,47,medium,minus,dotcolour,alfa,,,75,18,V,R,
602,98,14,14,4,27,53,465,['n'],1,right,['9'],5,59,[-0.0240742],71,53,easy,minus,dotcolour,alfa,,,75,18,V,R,
603,99,15,14,4,33,47,548,['n'],1,right,['9'],5,68,[-0.07536417],93,47,medium,minus,dotcolour,alfa,,,75,18,V,R,
604,100,16,14,4,47,33,582,['c'],1,left,['9'],5,91,[0.09882352],95,47,medium,minus,dotcolour,alfa,,,75,18,V,R,
605,101,17,14,4,53,27,515,['c'],1,left,['9'],5,85,[0.05315021],84,53,easy,minus,dotcolour,alfa,,,75,18,V,R,
606,102,18,14,4,44,36,481,['c'],1,left,['9'],5,80,[0.1341417],99,44,hard,minus,dotcolour,alfa,,,75,18,V,R,
607,103,19,14,4,27,53,499,['n'],1,right,['9'],5,41,[-0.05932042],93,53,easy,minus,dotcolour,alfa,,,75,18,V,R,
608,104,20,14,4,53,27,447,['c'],1,left,['9'],5,79,[0.12920462],98,53,easy,minus,dotcolour,alfa,,,75,18,V,R,
609,105,21,14,4,53,27,466,['c'],1,left,['9'],5,130,[0.08048817],88,53,easy,minus,dotcolour,alfa,,,75,18,V,R,
610,106,22,14,4,27,53,482,['n'],1,right,['9'],5,76,[-0.04940472],83,53,easy,minus,dotcolour,alfa,,,75,18,V,R,
611,107,23,14,4,33,47,431,['c'],0,right,['9'],5,328,[0.02081631],58,47,medium,minus,dotcolour,alfa,,,75,18,V,R,
612,108,24,14,4,36,44,433,['n'],1,right,['9'],5,99,[-0.02164441],65,44,hard,minus,dotcolour,alfa,,,75,18,V,R,
613,109,25,14,4,53,27,531,['c'],1,left,['9'],5,91,[0.09815192],95,53,easy,minus,dotcolour,alfa,,,75,18,V,R,
614,110,26,14,4,27,53,483,['n'],1,right,['9'],5,158,[-0.05883203],79,53,easy,minus,dotcolour,alfa,,,75,18,V,R,
615,111,27,14,4,44,36,633,['c'],1,left,['9'],5,79,[0.0565053],86,44,hard,minus,dotcolour,alfa,,,75,18,V,R,
616,112,28,14,4,47,33,633,['c'],1,left,['9'],5,171,[0.11456807],92,47,medium,minus,dotcolour,alfa,,,75,18,V,R,
617,113,29,14,4,36,44,515,['n'],1,right,['0'],6,121,[-0.13667718],97,44,hard,minus,dotcolour,alfa,,,75,18,V,R,
618,114,30,14,4,36,44,1315,['n'],1,right,['9'],5,113,[-0.11977852],96,44,hard,minus,dotcolour,alfa,,,75,18,V,R,
619,115,31,14,4,36,44,832,['n'],1,right,['9'],5,156,[-0.1897654],99,44,hard,minus,dotcolour,alfa,,,75,18,V,R,
620,116,32,14,4,44,36,783,['n'],0,left,['9'],5,145,[-0.02415391],64,44,hard,minus,dotcolour,alfa,,,75,18,V,R,
621,117,33,14,4,47,33,499,['c'],1,left,['9'],5,112,[0.08586695],91,47,medium,minus,dotcolour,alfa,,,75,18,V,R,
622,118,34,14,4,53,27,550,['c'],1,left,['9'],5,198,[0.06031131],77,53,easy,minus,dotcolour,alfa,,,75,18,V,R,
623,119,35,14,4,47,33,631,['c'],1,left,['9'],5,278,[0.1097454],87,47,medium,minus,dotcolour,alfa,,,75,18,V,R,
624,120,36,14,4,44,36,632,['c'],1,left,['9'],5,116,[0.07291839],87,44,hard,minus,dotcolour,alfa,,,75,18,V,R,
625,121,37,14,4,33,47,582,['n'],1,right,['0'],6,104,[-0.08846746],92,47,medium,minus,dotcolour,alfa,,,75,18,V,R,
626,122,38,14,4,36,44,700,['n'],1,right,['9'],5,98,[-0.07953904],91,44,hard,minus,dotcolour,alfa,,,75,18,V,R,
627,123,39,14,4,47,33,598,['c'],1,left,['9'],5,15,[0.08444902],100,47,medium,minus,dotcolour,alfa,,,75,18,V,R,
628,124,40,14,4,44,36,546,['c'],1,left,['9'],5,98,[0.09750741],94,44,hard,minus,dotcolour,alfa,,,75,18,V,R,
629,125,41,14,4,36,44,816,['n'],1,right,['0'],6,255,[-0.03472968],65,44,hard,minus,dotcolour,alfa,,,75,18,V,R,
630,0,0,15,5,33,47,566,['n'],1,right,['0'],6,143,[-0.04406224],99,47,medium,plus,dotcolour,alfa,,,75,18,V,R,
631,1,1,15,5,36,44,682,['c'],0,right,['9'],5,87,[0.01882082],91,44,hard,plus,dotcolour,alfa,,,75,18,V,R,
632,2,2,15,5,36,44,448,['n'],1,right,['0'],6,123,[-0.08193454],100,44,hard,plus,dotcolour,alfa,,,75,18,V,R,
633,3,3,15,5,44,36,749,['c'],1,left,['9'],5,89,[0.02988192],97,44,hard,plus,dotcolour,alfa,,,75,18,V,R,
634,4,4,15,5,44,36,599,['n'],0,left,['0'],6,23,[-0.06044372],100,44,hard,plus,dotcolour,alfa,,,75,18,V,R,
635,5,5,15,5,53,27,449,['c'],1,left,['9'],5,93,[0.04881663],100,53,easy,plus,dotcolour,alfa,,,75,18,V,R,
636,6,6,15,5,47,33,665,['c'],1,left,['0'],6,8,[0.06213221],100,47,medium,plus,dotcolour,alfa,,,75,18,V,R,
637,7,7,15,5,27,53,483,['c'],0,right,['0'],6,1541,[-0.0680282],12,53,easy,plus,dotcolour,alfa,,,75,18,V,R,
638,8,8,15,5,47,33,564,['c'],1,left,['0'],6,210,[0.12111705],100,47,medium,plus,dotcolour,alfa,,,75,18,V,R,
639,9,9,15,5,47,33,916,['c'],1,left,['9'],5,118,[0.02144455],90,47,medium,plus,dotcolour,alfa,,,75,18,V,R,
640,10,10,15,5,27,53,447,['n'],1,right,['0'],6,120,[-0.14221618],100,53,easy,plus,dotcolour,alfa,,,75,18,V,R,
641,11,11,15,5,27,53,499,['n'],1,right,['0'],6,121,[-0.11287034],100,53,easy,plus,dotcolour,alfa,,,75,18,V,R,
642,12,12,15,5,44,36,415,['c'],1,left,['0'],6,101,[0.09148008],100,44,hard,plus,dotcolour,alfa,,,75,18,V,R,
643,13,13,15,5,36,44,1098,['c'],0,right,['9'],5,262,[0.05061237],97,44,hard,plus,dotcolour,alfa,,,75,18,V,R,
644,14,14,15,5,36,44,649,['n'],1,right,['0'],6,1491,[-0.17337739],99,44,hard,plus,dotcolour,alfa,,,75,18,V,R,
645,15,15,15,5,33,47,866,['c'],0,right,['0'],6,1758,[-0.1687585],1,47,medium,plus,dotcolour,alfa,,,75,18,V,R,
646,16,16,15,5,47,33,832,['n'],0,left,['0'],6,159,[-0.07379243],100,47,medium,plus,dotcolour,alfa,,,75,18,V,R,
647,17,17,15,5,53,27,681,['c'],1,left,['0'],6,158,[0.02679262],92,53,easy,plus,dotcolour,alfa,,,75,18,V,R,
648,18,18,15,5,33,47,533,['n'],1,right,['0'],6,11,[-0.06554187],100,47,medium,plus,dotcolour,alfa,,,75,18,V,R,
649,19,19,15,5,36,44,600,['n'],1,right,['0'],6,2996,[-0.3900173],100,44,hard,plus,dotcolour,alfa,,,75,18,V,R,
650,20,20,15,5,53,27,1115,['c'],1,left,['0'],6,144,[0.02065821],88,53,easy,plus,dotcolour,alfa,,,75,18,V,R,
651,21,21,15,5,33,47,483,['n'],1,right,['0'],6,104,[-0.09947712],100,47,medium,plus,dotcolour,alfa,,,75,18,V,R,
652,22,22,15,5,53,27,499,['n'],0,left,['0'],6,65,[-0.06302134],100,53,easy,plus,dotcolour,alfa,,,75,18,V,R,
653,23,23,15,5,27,53,633,['n'],1,right,['0'],6,1830,[-0.19507885],99,53,easy,plus,dotcolour,alfa,,,75,18,V,R,
654,24,24,15,5,44,36,982,['n'],0,left,['9'],5,383,[-0.11543037],100,44,hard,plus,dotcolour,alfa,,,75,18,V,R,
655,25,25,15,5,44,36,798,['c'],1,left,['9'],5,112,[0.0265648],95,44,hard,plus,dotcolour,alfa,,,75,18,V,R,
656,26,26,15,5,33,47,666,['n'],1,right,['9'],5,618,[-0.13621236],100,47,medium,plus,dotcolour,alfa,,,75,18,V,R,
657,27,27,15,5,27,53,665,['n'],1,right,['9'],5,80,[-0.02963707],98,53,easy,plus,dotcolour,alfa,,,75,18,V,R,
658,28,28,15,5,33,47,699,['n'],1,right,['9'],5,378,[-0.20001896],100,47,medium,plus,dotcolour,alfa,,,75,18,V,R,
659,29,29,15,5,53,27,682,['c'],1,left,['0'],6,2241,[0.21016295],99,53,easy,plus,dotcolour,alfa,,,75,18,V,R,
660,30,30,15,5,53,27,549,['c'],1,left,['0'],6,82,[0.05554325],100,53,easy,plus,dotcolour,alfa,,,75,18,V,R,
661,31,31,15,5,44,36,1280,['n'],0,left,['9'],5,101,[-0.08905117],100,44,hard,plus,dotcolour,alfa,,,75,18,V,R,
662,32,32,15,5,33,47,1866,['n'],1,right,['0'],6,935,[-0.2554581],100,47,medium,plus,dotcolour,alfa,,,75,18,V,R,
663,33,33,15,5,47,33,849,['c'],1,left,['9'],5,177,[0.09258843],100,47,medium,plus,dotcolour,alfa,,,75,18,V,R,
664,34,34,15,5,47,33,516,['c'],1,left,['9'],5,198,[0.10169721],100,47,medium,plus,dotcolour,alfa,,,75,18,V,R,
665,35,35,15,5,36,44,582,['n'],1,right,['0'],6,40,[-0.05628342],100,44,hard,plus,dotcolour,alfa,,,75,18,V,R,
666,36,36,15,5,47,33,631,['c'],1,left,['9'],5,15,[0.0712314],100,47,medium,plus,dotcolour,alfa,,,75,18,V,R,
667,37,37,15,5,53,27,516,['c'],1,left,['9'],5,587,[0.18019606],100,53,easy,plus,dotcolour,alfa,,,75,18,V,R,
668,38,38,15,5,27,53,449,['n'],1,right,['0'],6,123,[-0.1240788],100,53,easy,plus,dotcolour,alfa,,,75,18,V,R,
669,39,39,15,5,27,53,598,['n'],1,right,['0'],6,55,[-0.04548637],100,53,easy,plus,dotcolour,alfa,,,75,18,V,R,
670,40,40,15,5,44,36,681,['c'],1,left,['8'],4,595,[0.2124353],100,44,hard,plus,dotcolour,alfa,,,75,18,V,R,
671,41,41,15,5,36,44,517,['c'],0,right,['8'],4,727,[0.07058384],95,44,hard,plus,dotcolour,alfa,,,75,18,V,R,
672,42,0,16,5,27,53,433,['c'],0,right,['1'],1,705,[0.0224268],72,53,easy,plus,dotcolour,alfa,,,75,18,V,R,
673,43,1,16,5,47,33,748,['n'],0,left,['1'],1,712,[-0.00375264],54,47,medium,plus,dotcolour,alfa,,,75,18,V,R,
674,44,2,16,5,53,27,1132,['c'],1,left,['0'],6,159,[0.17534798],100,53,easy,plus,dotcolour,alfa,,,75,18,V,R,
675,45,3,16,5,47,33,750,['c'],1,left,['0'],6,92,[0.03717464],99,47,medium,plus,dotcolour,alfa,,,75,18,V,R,
676,46,4,16,5,44,36,696,['c'],1,left,['9'],5,230,[0.09596619],100,44,hard,plus,dotcolour,alfa,,,75,18,V,R,
677,47,5,16,5,27,53,584,['n'],1,right,['0'],6,358,[-0.10604061],100,53,easy,plus,dotcolour,alfa,,,75,18,V,R,
678,48,6,16,5,33,47,699,['n'],1,right,['0'],6,85,[-0.08395418],100,47,medium,plus,dotcolour,alfa,,,75,18,V,R,
679,49,7,16,5,44,36,582,['c'],1,left,['9'],5,219,[0.03468116],94,44,hard,plus,dotcolour,alfa,,,75,18,V,R,
680,50,8,16,5,47,33,282,['n'],0,left,['2'],2,1008,[0.20205934],0,47,medium,plus,dotcolour,alfa,,,75,18,V,R,
681,51,9,16,5,36,44,948,['n'],1,right,['0'],6,347,[-0.05481664],97,44,hard,plus,dotcolour,alfa,,,75,18,V,R,
682,52,10,16,5,27,53,1349,['n'],1,right,['0'],6,440,[-0.29107546],100,53,easy,plus,dotcolour,alfa,,,75,18,V,R,
683,53,11,16,5,44,36,365,['n'],0,left,['2'],2,1057,[0.01364437],38,44,hard,plus,dotcolour,alfa,,,75,18,V,R,
684,54,12,16,5,44,36,481,['n'],0,left,['0'],6,333,[-0.08776653],100,44,hard,plus,dotcolour,alfa,,,75,18,V,R,
685,55,13,16,5,27,53,1082,['n'],1,right,['0'],6,101,[-0.1200533],100,53,easy,plus,dotcolour,alfa,,,75,18,V,R,
686,56,14,16,5,53,27,866,['n'],0,left,['0'],6,144,[-0.03606278],97,53,easy,plus,dotcolour,alfa,,,75,18,V,R,
687,57,15,16,5,27,53,565,['n'],1,right,['0'],6,148,[-0.13490571],100,53,easy,plus,dotcolour,alfa,,,75,18,V,R,
688,58,16,16,5,36,44,598,['n'],1,right,['0'],6,160,[-0.08469197],100,44,hard,plus,dotcolour,alfa,,,75,18,V,R,
689,59,17,16,5,36,44,499,['n'],1,right,['0'],6,110,[-0.08556313],100,44,hard,plus,dotcolour,alfa,,,75,18,V,R,
690,60,18,16,5,47,33,549,['c'],1,left,['0'],6,133,[0.06931109],100,47,medium,plus,dotcolour,alfa,,,75,18,V,R,
691,61,19,16,5,53,27,416,['n'],0,left,['0'],6,120,[-0.04778095],99,53,easy,plus,dotcolour,alfa,,,75,18,V,R,
692,62,20,16,5,47,33,483,['n'],0,left,['0'],6,354,[-0.02822059],85,47,medium,plus,dotcolour,alfa,,,75,18,V,R,
693,63,21,16,5,33,47,516,['n'],1,right,['0'],6,112,[-0.13572943],100,47,medium,plus,dotcolour,alfa,,,75,18,V,R,
694,64,22,16,5,53,27,532,['c'],1,left,['0'],6,200,[0.07779793],100,53,easy,plus,dotcolour,alfa,,,75,18,V,R,
695,65,23,16,5,33,47,499,['n'],1,right,['0'],6,157,[-0.00113506],53,47,medium,plus,dotcolour,alfa,,,75,18,V,R,
696,66,24,16,5,44,36,648,['n'],0,left,['0'],6,110,[-0.05636208],100,44,hard,plus,dotcolour,alfa,,,75,18,V,R,
697,67,25,16,5,36,44,413,['n'],1,right,['0'],6,138,[-0.11779365],100,44,hard,plus,dotcolour,alfa,,,75,18,V,R,
698,68,26,16,5,33,47,416,['n'],1,right,['0'],6,213,[-0.05824933],99,47,medium,plus,dotcolour,alfa,,,75,18,V,R,
699,69,27,16,5,53,27,699,['c'],1,left,['0'],6,154,[0.09340815],100,53,easy,plus,dotcolour,alfa,,,75,18,V,R,
700,70,28,16,5,53,27,483,['c'],1,left,['0'],6,202,[0.19708149],100,53,easy,plus,dotcolour,alfa,,,75,18,V,R,
701,71,29,16,5,27,53,382,['n'],1,right,['0'],6,100,[-0.12743091],100,53,easy,plus,dotcolour,alfa,,,75,18,V,R,
702,72,30,16,5,47,33,833,['n'],0,left,['0'],6,48,[-0.07980156],100,47,medium,plus,dotcolour,alfa,,,75,18,V,R,
703,73,31,16,5,36,44,1349,['n'],1,right,['9'],5,898,[-0.11771738],99,44,hard,plus,dotcolour,alfa,,,75,18,V,R,
704,74,32,16,5,27,53,2280,['n'],1,right,['0'],6,867,[-0.15247304],100,53,easy,plus,dotcolour,alfa,,,75,18,V,R,
705,75,33,16,5,33,47,464,['n'],1,right,['0'],6,151,[-0.06735926],100,47,medium,plus,dotcolour,alfa,,,75,18,V,R,
706,76,34,16,5,33,47,850,['n'],1,right,['0'],6,144,[-0.13080708],100,47,medium,plus,dotcolour,alfa,,,75,18,V,R,
707,77,35,16,5,47,33,882,['n'],0,left,['9'],5,80,[-0.04353873],100,47,medium,plus,dotcolour,alfa,,,75,18,V,R,
708,78,36,16,5,33,47,465,['n'],1,right,['9'],5,235,[0.009674],33,47,medium,plus,dotcolour,alfa,,,75,18,V,R,
709,79,37,16,5,36,44,683,['n'],1,right,['9'],5,88,[-0.08170269],100,44,hard,plus,dotcolour,alfa,,,75,18,V,R,
710,80,38,16,5,36,44,597,['n'],1,right,['9'],5,134,[-0.07534922],100,44,hard,plus,dotcolour,alfa,,,75,18,V,R,
711,81,39,16,5,53,27,616,['c'],1,left,['9'],5,17,[0.0833128],100,53,easy,plus,dotcolour,alfa,,,75,18,V,R,
712,82,40,16,5,44,36,798,['n'],0,left,['9'],5,50,[-0.04291152],100,44,hard,plus,dotcolour,alfa,,,75,18,V,R,
713,83,41,16,5,44,36,549,['c'],1,left,['9'],5,75,[0.05481767],100,44,hard,plus,dotcolour,alfa,,,75,18,V,R,
714,84,0,17,5,53,27,633,['c'],1,left,['9'],5,78,[0.04894236],100,53,easy,plus,dotcolour,alfa,,,75,18,V,R,
715,85,1,17,5,47,33,429,['c'],1,left,['9'],5,275,[0.02811635],87,47,medium,plus,dotcolour,alfa,,,75,18,V,R,
716,86,2,17,5,33,47,532,['n'],1,right,['9'],5,108,[-0.13434895],100,47,medium,plus,dotcolour,alfa,,,75,18,V,R,
717,87,3,17,5,47,33,567,['c'],1,left,['9'],5,9,[0.07858621],100,47,medium,plus,dotcolour,alfa,,,75,18,V,R,
718,88,4,17,5,33,47,682,['n'],1,right,['9'],5,54,[-0.07811763],100,47,medium,plus,dotcolour,alfa,,,75,18,V,R,
719,89,5,17,5,27,53,399,['n'],1,right,['9'],5,86,[-0.07697802],100,53,easy,plus,dotcolour,alfa,,,75,18,V,R,
720,90,6,17,5,44,36,565,['c'],1,left,['9'],5,157,[0.09997292],100,44,hard,plus,dotcolour,alfa,,,75,18,V,R,
721,91,7,17,5,33,47,381,['n'],1,right,['9'],5,113,[-0.04603339],99,47,medium,plus,dotcolour,alfa,,,75,18,V,R,
722,92,8,17,5,27,53,415,['n'],1,right,['9'],5,141,[-0.1005883],100,53,easy,plus,dotcolour,alfa,,,75,18,V,R,
723,93,9,17,5,36,44,316,['n'],1,right,['9'],5,100,[-0.00612547],67,44,hard,plus,dotcolour,alfa,,,75,18,V,R,
724,94,10,17,5,47,33,732,['c'],1,left,['9'],5,116,[0.11990438],100,47,medium,plus,dotcolour,alfa,,,75,18,V,R,
725,95,11,17,5,27,53,498,['n'],1,right,['0'],6,141,[-0.15066275],100,53,easy,plus,dotcolour,alfa,,,75,18,V,R,
726,96,12,17,5,27,53,1632,['n'],1,right,['0'],6,151,[-0.09279473],100,53,easy,plus,dotcolour,alfa,,,75,18,V,R,
727,97,13,17,5,44,36,399,['n'],0,left,['2'],2,858,[0.03708378],19,44,hard,plus,dotcolour,alfa,,,75,18,V,R,
728,98,14,17,5,36,44,500,['n'],1,right,['9'],5,116,[-0.11399398],100,44,hard,plus,dotcolour,alfa,,,75,18,V,R,
729,99,15,17,5,36,44,415,['n'],1,right,['8'],4,352,[-0.07460621],99,44,hard,plus,dotcolour,alfa,,,75,18,V,R,
730,100,16,17,5,47,33,499,['n'],0,left,['8'],4,64,[-0.05755114],100,47,medium,plus,dotcolour,alfa,,,75,18,V,R,
731,101,17,17,5,44,36,465,['n'],0,left,['8'],4,140,[-0.13283441],100,44,hard,plus,dotcolour,alfa,,,75,18,V,R,
732,102,18,17,5,47,33,716,['c'],1,left,['9'],5,107,[0.09994468],100,47,medium,plus,dotcolour,alfa,,,75,18,V,R,
733,103,19,17,5,53,27,466,['n'],0,left,['9'],5,118,[-0.13129662],100,53,easy,plus,dotcolour,alfa,,,75,18,V,R,
734,104,20,17,5,53,27,531,['c'],1,left,['9'],5,93,[0.08319346],100,53,easy,plus,dotcolour,alfa,,,75,18,V,R,
735,105,21,17,5,53,27,749,['c'],1,left,['9'],5,52,[0.0858206],100,53,easy,plus,dotcolour,alfa,,,75,18,V,R,
736,106,22,17,5,53,27,449,['c'],1,left,['9'],5,90,[0.06463123],100,53,easy,plus,dotcolour,alfa,,,75,18,V,R,
737,107,23,17,5,47,33,533,['n'],0,left,['9'],5,50,[-0.09023496],100,47,medium,plus,dotcolour,alfa,,,75,18,V,R,
738,108,24,17,5,44,36,515,['c'],1,left,['9'],5,85,[0.11423488],100,44,hard,plus,dotcolour,alfa,,,75,18,V,R,
739,109,25,17,5,44,36,463,['n'],0,left,['9'],5,72,[-0.0887796],100,44,hard,plus,dotcolour,alfa,,,75,18,V,R,
740,110,26,17,5,36,44,532,['c'],0,right,['9'],5,82,[0.05451364],100,44,hard,plus,dotcolour,alfa,,,75,18,V,R,
741,111,27,17,5,27,53,533,['n'],1,right,['9'],5,58,[-0.07421362],100,53,easy,plus,dotcolour,alfa,,,75,18,V,R,
742,112,28,17,5,53,27,633,['c'],1,left,['9'],5,144,[0.00609524],64,53,easy,plus,dotcolour,alfa,,,75,18,V,R,
743,113,29,17,5,36,44,481,['n'],1,right,['9'],5,96,[-0.07251625],100,44,hard,plus,dotcolour,alfa,,,75,18,V,R,
744,114,30,17,5,44,36,850,['c'],1,left,['9'],5,59,[0.09103262],100,44,hard,plus,dotcolour,alfa,,,75,18,V,R,
745,115,31,17,5,27,53,482,['n'],1,right,['9'],5,71,[-0.05615555],100,53,easy,plus,dotcolour,alfa,,,75,18,V,R,
746,116,32,17,5,53,27,483,['c'],1,left,['9'],5,74,[0.08713808],100,53,easy,plus,dotcolour,alfa,,,75,18,V,R,
747,117,33,17,5,33,47,467,['n'],1,right,['9'],5,86,[-0.06406603],100,47,medium,plus,dotcolour,alfa,,,75,18,V,R,
748,118,34,17,5,33,47,566,['n'],1,right,['9'],5,61,[-0.07136192],100,47,medium,plus,dotcolour,alfa,,,75,18,V,R,
749,119,35,17,5,33,47,383,['n'],1,right,['9'],5,132,[-0.10037775],100,47,medium,plus,dotcolour,alfa,,,75,18,V,R,
750,120,36,17,5,27,53,466,['n'],1,right,['9'],5,118,[-0.11794736],100,53,easy,plus,dotcolour,alfa,,,75,18,V,R,
751,121,37,17,5,36,44,398,['n'],1,right,['9'],5,98,[-0.09691568],100,44,hard,plus,dotcolour,alfa,,,75,18,V,R,
752,122,38,17,5,44,36,332,['n'],0,left,['9'],5,122,[-0.10587514],100,44,hard,plus,dotcolour,alfa,,,75,18,V,R,
753,123,39,17,5,33,47,532,['n'],1,right,['9'],5,57,[-0.10627767],100,47,medium,plus,dotcolour,alfa,,,75,18,V,R,
754,124,40,17,5,36,44,533,['n'],1,right,['9'],5,203,[-0.00441647],59,44,hard,plus,dotcolour,alfa,,,75,18,V,R,
755,125,41,17,5,47,33,747,['c'],1,left,['9'],5,518,[0.2258521],100,47,medium,plus,dotcolour,alfa,,,75,18,V,R,
,,,,,,,,,,,,,,,,,,,,,1,soms vond ik dat de percentages niet overeenkwamen met mijn antoorden,75,18,V,R,
,,,,,,,,,,,,,,,,,,,,,2,['g'],75,18,V,R,
,,,,,,,,,,,,,,,,,,,,,3,['f'],75,18,V,R,
,,,,,,,,,,,,,,,,,,,,,5,['5'],75,18,V,R,
