trial,withinphasetrial,withinblocktrial,block,phase,dotsLeft,dotsRight,rt,resp,cor,cresp,conf_press,cj,RTconf,ev,fb,diff,difflevel,condition,task,manip,questionID,questionResp,sub,age,gender,handedness,
0,0,0,0,0,36,44,9084,['n'],1,right,['8'],3,1731,[-0.06958144],85,44,hard,plus,dotcolour,beta,,,20,18,V,R,
1,1,1,0,0,53,27,4598,['c'],1,left,['0'],1,575,[0.16048388],99,53,easy,plus,dotcolour,beta,,,20,18,V,R,
2,2,2,0,0,27,53,1382,['c'],0,right,['9'],2,1498,[-0.1180549],29,53,easy,plus,dotcolour,beta,,,20,18,V,R,
3,3,3,0,0,53,27,1283,['c'],1,left,['2'],5,1044,[0.02010758],79,53,easy,plus,dotcolour,beta,,,20,18,V,R,
4,4,4,0,0,33,47,915,['n'],1,right,['8'],3,879,[-0.0483565],88,47,medium,plus,dotcolour,beta,,,20,18,V,R,
5,5,5,0,0,27,53,982,['c'],0,right,['2'],5,3062,[-0.24340034],13,53,easy,plus,dotcolour,beta,,,20,18,V,R,
6,6,6,0,0,36,44,1565,['c'],0,right,['3'],4,1446,[-0.0251886],61,44,hard,plus,dotcolour,beta,,,20,18,V,R,
7,7,7,0,0,27,53,832,['n'],1,right,['3'],4,781,[-0.16360599],99,53,easy,plus,dotcolour,beta,,,20,18,V,R,
8,8,8,0,0,53,27,599,['c'],1,left,['2'],5,1615,[0.46371175],100,53,easy,plus,dotcolour,beta,,,20,18,V,R,
9,9,9,0,0,53,27,750,['c'],1,left,['1'],6,745,[0.19092208],99,53,easy,plus,dotcolour,beta,,,20,18,V,R,
10,10,10,0,0,33,47,700,['n'],1,right,['1'],6,713,[-0.19921677],100,47,medium,plus,dotcolour,beta,,,20,18,V,R,
11,11,11,0,0,33,47,899,['c'],0,right,['3'],4,609,[-0.10544828],24,47,medium,plus,dotcolour,beta,,,20,18,V,R,
12,12,12,0,0,44,36,998,['c'],1,left,['3'],4,634,[0.03592132],89,44,hard,plus,dotcolour,beta,,,20,18,V,R,
13,13,13,0,0,36,44,1182,['n'],1,right,['9'],2,539,[-0.00914835],83,44,hard,plus,dotcolour,beta,,,20,18,V,R,
14,14,14,0,0,47,33,815,['c'],1,left,['2'],5,830,[0.06532154],92,47,medium,plus,dotcolour,beta,,,20,18,V,R,
15,15,15,0,0,44,36,799,['c'],1,left,['3'],4,518,[0.17084103],100,44,hard,plus,dotcolour,beta,,,20,18,V,R,
16,16,16,0,0,47,33,816,['n'],0,left,['8'],3,555,[-0.00069515],80,47,medium,plus,dotcolour,beta,,,20,18,V,R,
17,17,17,0,0,27,53,1047,['n'],1,right,['3'],4,539,[-0.2215352],100,53,easy,plus,dotcolour,beta,,,20,18,V,R,
18,18,18,0,0,27,53,715,['c'],0,right,['0'],1,1251,[-0.03758861],57,53,easy,plus,dotcolour,beta,,,20,18,V,R,
19,19,19,0,0,33,47,882,['n'],1,right,['3'],4,879,[-0.17245879],99,47,medium,plus,dotcolour,beta,,,20,18,V,R,
20,20,20,0,0,44,36,680,['c'],1,left,['2'],5,922,[0.17895899],99,44,hard,plus,dotcolour,beta,,,20,18,V,R,
21,21,21,0,0,53,27,648,['c'],1,left,['2'],5,460,[0.15677017],100,53,easy,plus,dotcolour,beta,,,20,18,V,R,
22,22,22,0,0,44,36,615,['n'],0,left,['8'],3,986,[0.07288833],42,44,hard,plus,dotcolour,beta,,,20,18,V,R,
23,23,23,0,0,33,47,1016,['n'],1,right,['3'],4,1083,[-0.21502467],99,47,medium,plus,dotcolour,beta,,,20,18,V,R,
24,24,24,0,0,36,44,1215,['c'],0,right,['2'],5,953,[-0.02292127],65,44,hard,plus,dotcolour,beta,,,20,18,V,R,
25,25,25,0,0,44,36,982,['n'],0,left,['8'],3,933,[-0.05674616],89,44,hard,plus,dotcolour,beta,,,20,18,V,R,
26,26,26,0,0,47,33,749,['c'],1,left,['2'],5,467,[0.02337601],89,47,medium,plus,dotcolour,beta,,,20,18,V,R,
27,27,27,0,0,27,53,1349,['c'],0,right,['0'],1,1164,[0.00749552],74,53,easy,plus,dotcolour,beta,,,20,18,V,R,
28,28,28,0,0,47,33,649,['n'],0,left,['0'],1,1581,[-0.07035322],86,47,medium,plus,dotcolour,beta,,,20,18,V,R,
29,29,29,0,0,47,33,1014,['c'],1,left,['3'],4,990,[0.15508839],98,47,medium,plus,dotcolour,beta,,,20,18,V,R,
30,30,30,0,0,33,47,684,['n'],1,right,['8'],3,724,[-0.15033569],99,47,medium,plus,dotcolour,beta,,,20,18,V,R,
31,31,31,0,0,36,44,781,['c'],0,right,['3'],4,601,[0.04886297],92,44,hard,plus,dotcolour,beta,,,20,18,V,R,
32,32,32,0,0,44,36,732,['c'],1,left,['3'],4,605,[0.05526356],93,44,hard,plus,dotcolour,beta,,,20,18,V,R,
33,33,33,0,0,33,47,814,['c'],0,right,['3'],4,566,[-0.08286749],34,47,medium,plus,dotcolour,beta,,,20,18,V,R,
34,34,34,0,0,47,33,765,['c'],1,left,['3'],4,498,[0.1301001],99,47,medium,plus,dotcolour,beta,,,20,18,V,R,
35,35,35,0,0,44,36,799,['n'],0,left,['8'],3,784,[0.03856928],59,44,hard,plus,dotcolour,beta,,,20,18,V,R,
36,36,36,0,0,36,44,648,['n'],1,right,['3'],4,599,[-0.16565047],99,44,hard,plus,dotcolour,beta,,,20,18,V,R,
37,37,37,0,0,47,33,998,['c'],1,left,['2'],5,433,[0.15003341],100,47,medium,plus,dotcolour,beta,,,20,18,V,R,
38,38,38,0,0,53,27,630,['c'],1,left,['3'],4,496,[0.17220048],100,53,easy,plus,dotcolour,beta,,,20,18,V,R,
39,39,39,0,0,27,53,797,['n'],1,right,['8'],3,462,[-0.16232699],100,53,easy,plus,dotcolour,beta,,,20,18,V,R,
40,40,40,0,0,53,27,714,['c'],1,left,['3'],4,504,[0.16684599],100,53,easy,plus,dotcolour,beta,,,20,18,V,R,
41,41,41,0,0,36,44,998,['c'],0,right,['8'],3,846,[-0.10554835],27,44,hard,plus,dotcolour,beta,,,20,18,V,R,
42,42,0,1,0,36,44,616,['n'],1,right,['3'],4,572,[0.0056947],77,44,hard,plus,dotcolour,beta,,,20,18,V,R,
43,43,1,1,0,33,47,699,['n'],1,right,['3'],4,482,[-0.18499645],100,47,medium,plus,dotcolour,beta,,,20,18,V,R,
44,44,2,1,0,53,27,616,['n'],0,left,['8'],3,752,[-0.01873952],82,53,easy,plus,dotcolour,beta,,,20,18,V,R,
45,45,3,1,0,53,27,514,['c'],1,left,['3'],4,495,[0.11568183],99,53,easy,plus,dotcolour,beta,,,20,18,V,R,
46,46,4,1,0,47,33,615,['n'],0,left,['8'],3,1828,[0.08127697],42,47,medium,plus,dotcolour,beta,,,20,18,V,R,
47,47,5,1,0,44,36,749,['n'],0,left,['3'],4,1238,[-0.04301944],83,44,hard,plus,dotcolour,beta,,,20,18,V,R,
48,48,6,1,0,27,53,799,['n'],1,right,['2'],5,510,[-0.11812686],99,53,easy,plus,dotcolour,beta,,,20,18,V,R,
49,49,7,1,0,36,44,684,['c'],0,right,['2'],5,1648,[-0.01217288],65,44,hard,plus,dotcolour,beta,,,20,18,V,R,
50,50,8,1,0,33,47,715,['n'],1,right,['2'],5,434,[-0.19906982],100,47,medium,plus,dotcolour,beta,,,20,18,V,R,
51,51,9,1,0,36,44,700,['n'],1,right,['2'],5,423,[-0.09214765],98,44,hard,plus,dotcolour,beta,,,20,18,V,R,
52,52,10,1,0,53,27,849,['n'],0,left,['8'],3,685,[-0.08164259],95,53,easy,plus,dotcolour,beta,,,20,18,V,R,
53,53,11,1,0,27,53,681,['n'],1,right,['3'],4,568,[-0.15275657],99,53,easy,plus,dotcolour,beta,,,20,18,V,R,
54,54,12,1,0,47,33,782,['c'],1,left,['1'],6,740,[0.04165365],88,47,medium,plus,dotcolour,beta,,,20,18,V,R,
55,55,13,1,0,44,36,698,['n'],0,left,['2'],5,579,[0.02112632],69,44,hard,plus,dotcolour,beta,,,20,18,V,R,
56,56,14,1,0,36,44,699,['n'],1,right,['3'],4,850,[-0.07544299],93,44,hard,plus,dotcolour,beta,,,20,18,V,R,
57,57,15,1,0,44,36,1448,['n'],0,left,['3'],4,1104,[-0.24024902],99,44,hard,plus,dotcolour,beta,,,20,18,V,R,
58,58,16,1,0,47,33,667,['c'],1,left,['3'],4,514,[0.16358934],100,47,medium,plus,dotcolour,beta,,,20,18,V,R,
59,59,17,1,0,33,47,597,['n'],1,right,['3'],4,551,[-0.0882361],97,47,medium,plus,dotcolour,beta,,,20,18,V,R,
60,60,18,1,0,44,36,732,['c'],1,left,['2'],5,468,[0.0436393],93,44,hard,plus,dotcolour,beta,,,20,18,V,R,
61,61,19,1,0,27,53,632,['c'],0,right,['9'],2,922,[-0.06500108],46,53,easy,plus,dotcolour,beta,,,20,18,V,R,
62,62,20,1,0,33,47,564,['n'],1,right,['3'],4,920,[-0.09799934],95,47,medium,plus,dotcolour,beta,,,20,18,V,R,
63,63,21,1,0,47,33,1065,['c'],1,left,['2'],5,585,[0.02813502],88,47,medium,plus,dotcolour,beta,,,20,18,V,R,
64,64,22,1,0,36,44,582,['c'],0,right,['0'],1,764,[0.00562153],78,44,hard,plus,dotcolour,beta,,,20,18,V,R,
65,65,23,1,0,27,53,665,['n'],1,right,['2'],5,644,[-0.12251901],98,53,easy,plus,dotcolour,beta,,,20,18,V,R,
66,66,24,1,0,47,33,664,['c'],1,left,['2'],5,496,[0.08195425],97,47,medium,plus,dotcolour,beta,,,20,18,V,R,
67,67,25,1,0,44,36,748,['c'],1,left,['0'],1,888,[0.11882371],97,44,hard,plus,dotcolour,beta,,,20,18,V,R,
68,68,26,1,0,33,47,747,['n'],1,right,['9'],2,912,[-0.19496773],99,47,medium,plus,dotcolour,beta,,,20,18,V,R,
69,69,27,1,0,27,53,633,['n'],1,right,['2'],5,716,[-0.06771341],93,53,easy,plus,dotcolour,beta,,,20,18,V,R,
70,70,28,1,0,33,47,665,['c'],0,right,['0'],1,790,[0.01602575],81,47,medium,plus,dotcolour,beta,,,20,18,V,R,
71,71,29,1,0,53,27,932,['c'],1,left,['2'],5,947,[0.04175648],86,53,easy,plus,dotcolour,beta,,,20,18,V,R,
72,72,30,1,0,44,36,1117,['n'],0,left,['9'],2,698,[0.04786422],54,44,hard,plus,dotcolour,beta,,,20,18,V,R,
73,73,31,1,0,47,33,665,['n'],0,left,['9'],2,1253,[0.11936571],26,47,medium,plus,dotcolour,beta,,,20,18,V,R,
74,74,32,1,0,53,27,582,['c'],1,left,['2'],5,701,[0.35308497],100,53,easy,plus,dotcolour,beta,,,20,18,V,R,
75,75,33,1,0,47,33,633,['c'],1,left,['2'],5,449,[0.13920133],99,47,medium,plus,dotcolour,beta,,,20,18,V,R,
76,76,34,1,0,27,53,766,['n'],1,right,['2'],5,434,[-0.19309569],100,53,easy,plus,dotcolour,beta,,,20,18,V,R,
77,77,35,1,0,33,47,882,['n'],1,right,['2'],5,519,[-0.17193611],100,47,medium,plus,dotcolour,beta,,,20,18,V,R,
78,78,36,1,0,53,27,732,['c'],1,left,['2'],5,438,[0.15227209],100,53,easy,plus,dotcolour,beta,,,20,18,V,R,
79,79,37,1,0,27,53,680,['n'],1,right,['1'],6,355,[-0.19013088],100,53,easy,plus,dotcolour,beta,,,20,18,V,R,
80,80,38,1,0,36,44,566,['n'],1,right,['2'],5,856,[-0.03933857],86,44,hard,plus,dotcolour,beta,,,20,18,V,R,
81,81,39,1,0,36,44,632,['n'],1,right,['2'],5,398,[-0.05230306],96,44,hard,plus,dotcolour,beta,,,20,18,V,R,
82,82,40,1,0,53,27,564,['c'],1,left,['2'],5,505,[0.19768681],100,53,easy,plus,dotcolour,beta,,,20,18,V,R,
83,83,41,1,0,44,36,681,['c'],1,left,['2'],5,434,[0.02686976],90,44,hard,plus,dotcolour,beta,,,20,18,V,R,
84,84,0,2,0,33,47,566,['n'],1,right,['2'],5,415,[-0.10766127],99,47,medium,plus,dotcolour,beta,,,20,18,V,R,
85,85,1,2,0,47,33,815,['c'],1,left,['2'],5,384,[0.07940849],98,47,medium,plus,dotcolour,beta,,,20,18,V,R,
86,86,2,2,0,36,44,699,['n'],1,right,['2'],5,438,[-0.09470684],98,44,hard,plus,dotcolour,beta,,,20,18,V,R,
87,87,3,2,0,47,33,582,['c'],1,left,['2'],5,382,[0.03238081],93,47,medium,plus,dotcolour,beta,,,20,18,V,R,
88,88,4,2,0,53,27,1032,['n'],0,left,['9'],2,1391,[0.3236768],2,53,easy,plus,dotcolour,beta,,,20,18,V,R,
89,89,5,2,0,44,36,732,['c'],1,left,['2'],5,668,[0.02088345],84,44,hard,plus,dotcolour,beta,,,20,18,V,R,
90,90,6,2,0,47,33,764,['c'],1,left,['2'],5,412,[0.18043414],100,47,medium,plus,dotcolour,beta,,,20,18,V,R,
91,91,7,2,0,27,53,665,['n'],1,right,['2'],5,387,[-0.14455355],100,53,easy,plus,dotcolour,beta,,,20,18,V,R,
92,92,8,2,0,44,36,631,['c'],1,left,['2'],5,419,[0.07502468],97,44,hard,plus,dotcolour,beta,,,20,18,V,R,
93,93,9,2,0,47,33,682,['c'],1,left,['2'],5,440,[0.14128766],100,47,medium,plus,dotcolour,beta,,,20,18,V,R,
94,94,10,2,0,36,44,949,['n'],1,right,['2'],5,458,[-0.06108803],96,44,hard,plus,dotcolour,beta,,,20,18,V,R,
95,95,11,2,0,33,47,549,['n'],1,right,['3'],4,564,[0.01851768],71,47,medium,plus,dotcolour,beta,,,20,18,V,R,
96,96,12,2,0,44,36,1348,['c'],1,left,['2'],5,592,[0.25251082],100,44,hard,plus,dotcolour,beta,,,20,18,V,R,
97,97,13,2,0,53,27,432,['c'],1,left,['2'],5,377,[0.12349281],99,53,easy,plus,dotcolour,beta,,,20,18,V,R,
98,98,14,2,0,27,53,615,['n'],1,right,['2'],5,370,[-0.17835401],100,53,easy,plus,dotcolour,beta,,,20,18,V,R,
99,99,15,2,0,47,33,764,['c'],1,left,['3'],4,406,[0.08085912],98,47,medium,plus,dotcolour,beta,,,20,18,V,R,
100,100,16,2,0,27,53,632,['n'],1,right,['3'],4,510,[-0.07499246],96,53,easy,plus,dotcolour,beta,,,20,18,V,R,
101,101,17,2,0,53,27,614,['c'],1,left,['1'],6,674,[0.28421245],100,53,easy,plus,dotcolour,beta,,,20,18,V,R,
102,102,18,2,0,47,33,683,['c'],1,left,['1'],6,541,[0.08202329],97,47,medium,plus,dotcolour,beta,,,20,18,V,R,
103,103,19,2,0,36,44,716,['n'],1,right,['2'],5,404,[0.00501369],81,44,hard,plus,dotcolour,beta,,,20,18,V,R,
104,104,20,2,0,36,44,765,['n'],1,right,['2'],5,510,[-0.04644234],93,44,hard,plus,dotcolour,beta,,,20,18,V,R,
105,105,21,2,0,44,36,650,['n'],0,left,['2'],5,490,[-0.14895102],99,44,hard,plus,dotcolour,beta,,,20,18,V,R,
106,106,22,2,0,53,27,597,['c'],1,left,['2'],5,407,[0.15177339],100,53,easy,plus,dotcolour,beta,,,20,18,V,R,
107,107,23,2,0,33,47,665,['c'],0,right,['3'],4,525,[-0.03675638],61,47,medium,plus,dotcolour,beta,,,20,18,V,R,
108,108,24,2,0,44,36,531,['c'],1,left,['2'],5,517,[0.11078679],98,44,hard,plus,dotcolour,beta,,,20,18,V,R,
109,109,25,2,0,33,47,748,['c'],0,right,['0'],1,763,[0.10332047],96,47,medium,plus,dotcolour,beta,,,20,18,V,R,
110,110,26,2,0,27,53,997,['n'],1,right,['2'],5,1038,[-0.19290674],99,53,easy,plus,dotcolour,beta,,,20,18,V,R,
111,111,27,2,0,27,53,549,['n'],1,right,['2'],5,415,[-0.11914601],99,53,easy,plus,dotcolour,beta,,,20,18,V,R,
112,112,28,2,0,27,53,898,['n'],1,right,['1'],6,372,[-0.08848378],99,53,easy,plus,dotcolour,beta,,,20,18,V,R,
113,113,29,2,0,36,44,782,['n'],1,right,['1'],6,319,[-0.09269897],99,44,hard,plus,dotcolour,beta,,,20,18,V,R,
114,114,30,2,0,53,27,1064,['c'],1,left,['3'],4,522,[0.11065637],98,53,easy,plus,dotcolour,beta,,,20,18,V,R,
115,115,31,2,0,33,47,598,['n'],1,right,['2'],5,390,[-0.22510917],100,47,medium,plus,dotcolour,beta,,,20,18,V,R,
116,116,32,2,0,33,47,465,['n'],1,right,['2'],5,469,[0.03191384],65,47,medium,plus,dotcolour,beta,,,20,18,V,R,
117,117,33,2,0,36,44,765,['n'],1,right,['1'],6,389,[-0.20122304],100,44,hard,plus,dotcolour,beta,,,20,18,V,R,
118,118,34,2,0,27,53,415,['n'],1,right,['1'],6,310,[-0.24970348],100,53,easy,plus,dotcolour,beta,,,20,18,V,R,
119,119,35,2,0,53,27,466,['c'],1,left,['1'],6,416,[0.2349801],100,53,easy,plus,dotcolour,beta,,,20,18,V,R,
120,120,36,2,0,33,47,663,['n'],1,right,['1'],6,302,[-0.0819985],99,47,medium,plus,dotcolour,beta,,,20,18,V,R,
121,121,37,2,0,44,36,1065,['c'],1,left,['2'],5,586,[0.0142208],84,44,hard,plus,dotcolour,beta,,,20,18,V,R,
122,122,38,2,0,47,33,482,['n'],0,left,['8'],3,1345,[0.0541455],51,47,medium,plus,dotcolour,beta,,,20,18,V,R,
123,123,39,2,0,36,44,749,['n'],1,right,['2'],5,583,[-0.08231033],96,44,hard,plus,dotcolour,beta,,,20,18,V,R,
124,124,40,2,0,53,27,682,['c'],1,left,['2'],5,485,[0.04810188],94,53,easy,plus,dotcolour,beta,,,20,18,V,R,
125,125,41,2,0,44,36,797,['c'],1,left,['1'],6,355,[0.09310792],99,44,hard,plus,dotcolour,beta,,,20,18,V,R,
126,0,0,3,1,44,36,516,['c'],1,left,['2'],5,820,[0.22634233],97,44,hard,minus,dotcolour,beta,,,20,18,V,R,
127,1,1,3,1,36,44,500,['n'],1,right,['2'],5,568,[-0.10270538],76,44,hard,minus,dotcolour,beta,,,20,18,V,R,
128,2,2,3,1,33,47,532,['c'],0,right,['0'],1,958,[0.00184398],27,47,medium,minus,dotcolour,beta,,,20,18,V,R,
129,3,3,3,1,53,27,632,['c'],1,left,['2'],5,839,[0.11895413],78,53,easy,minus,dotcolour,beta,,,20,18,V,R,
130,4,4,3,1,44,36,914,['n'],0,left,['2'],5,410,[0.02268133],10,44,hard,minus,dotcolour,beta,,,20,18,V,R,
131,5,5,3,1,27,53,698,['c'],0,right,['0'],1,975,[-0.13357807],3,53,easy,minus,dotcolour,beta,,,20,18,V,R,
132,6,6,3,1,44,36,1616,['n'],0,left,['8'],3,993,[-0.03459344],41,44,hard,minus,dotcolour,beta,,,20,18,V,R,
133,7,7,3,1,27,53,632,['n'],1,right,['2'],5,593,[-0.19192902],96,53,easy,minus,dotcolour,beta,,,20,18,V,R,
134,8,8,3,1,44,36,698,['c'],1,left,['2'],5,799,[0.10782612],74,44,hard,minus,dotcolour,beta,,,20,18,V,R,
135,9,9,3,1,36,44,632,['n'],1,right,['2'],5,391,[-0.13245964],90,44,hard,minus,dotcolour,beta,,,20,18,V,R,
136,10,10,3,1,36,44,599,['n'],1,right,['2'],5,713,[-0.15873169],90,44,hard,minus,dotcolour,beta,,,20,18,V,R,
137,11,11,3,1,27,53,582,['n'],1,right,['1'],6,294,[-0.08066532],70,53,easy,minus,dotcolour,beta,,,20,18,V,R,
138,12,12,3,1,53,27,732,['c'],1,left,['2'],5,766,[0.27517076],99,53,easy,minus,dotcolour,beta,,,20,18,V,R,
139,13,13,3,1,27,53,531,['c'],0,right,['0'],1,628,[-0.16345346],1,53,easy,minus,dotcolour,beta,,,20,18,V,R,
140,14,14,3,1,27,53,665,['n'],1,right,['1'],6,513,[-0.06472847],56,53,easy,minus,dotcolour,beta,,,20,18,V,R,
141,15,15,3,1,33,47,399,['n'],1,right,['2'],5,646,[-0.14142011],87,47,medium,minus,dotcolour,beta,,,20,18,V,R,
142,16,16,3,1,47,33,1034,['c'],1,left,['2'],5,597,[0.07714233],62,47,medium,minus,dotcolour,beta,,,20,18,V,R,
143,17,17,3,1,36,44,831,['n'],1,right,['3'],4,669,[-0.08534505],66,44,hard,minus,dotcolour,beta,,,20,18,V,R,
144,18,18,3,1,33,47,617,['n'],1,right,['1'],6,467,[-0.04751839],45,47,medium,minus,dotcolour,beta,,,20,18,V,R,
145,19,19,3,1,33,47,532,['n'],1,right,['2'],5,668,[-0.20314265],96,47,medium,minus,dotcolour,beta,,,20,18,V,R,
146,20,20,3,1,36,44,415,['n'],1,right,['0'],1,651,[-0.06481501],55,44,hard,minus,dotcolour,beta,,,20,18,V,R,
147,21,21,3,1,47,33,782,['c'],1,left,['2'],5,1171,[0.17445146],88,47,medium,minus,dotcolour,beta,,,20,18,V,R,
148,22,22,3,1,47,33,783,['c'],1,left,['2'],5,598,[0.15071177],90,47,medium,minus,dotcolour,beta,,,20,18,V,R,
149,23,23,3,1,27,53,817,['n'],1,right,['2'],5,375,[-0.12978299],90,53,easy,minus,dotcolour,beta,,,20,18,V,R,
150,24,24,3,1,53,27,1149,['c'],1,left,['2'],5,580,[0.3365904],100,53,easy,minus,dotcolour,beta,,,20,18,V,R,
151,25,25,3,1,44,36,514,['c'],1,left,['2'],5,602,[0.01549817],28,44,hard,minus,dotcolour,beta,,,20,18,V,R,
152,26,26,3,1,53,27,649,['n'],0,left,['0'],1,569,[-0.07042629],59,53,easy,minus,dotcolour,beta,,,20,18,V,R,
153,27,27,3,1,47,33,782,['c'],1,left,['2'],5,572,[0.07113639],59,47,medium,minus,dotcolour,beta,,,20,18,V,R,
154,28,28,3,1,36,44,648,['n'],1,right,['3'],4,636,[-0.09271118],70,44,hard,minus,dotcolour,beta,,,20,18,V,R,
155,29,29,3,1,47,33,649,['c'],1,left,['3'],4,563,[0.15986262],92,47,medium,minus,dotcolour,beta,,,20,18,V,R,
156,30,30,3,1,36,44,748,['n'],1,right,['3'],4,544,[-0.14985917],91,44,hard,minus,dotcolour,beta,,,20,18,V,R,
157,31,31,3,1,27,53,732,['n'],1,right,['2'],5,446,[-0.13977786],91,53,easy,minus,dotcolour,beta,,,20,18,V,R,
158,32,32,3,1,53,27,865,['c'],1,left,['2'],5,1643,[0.30879338],97,53,easy,minus,dotcolour,beta,,,20,18,V,R,
159,33,33,3,1,33,47,599,['n'],1,right,['3'],4,555,[0.00191351],20,47,medium,minus,dotcolour,beta,,,20,18,V,R,
160,34,34,3,1,33,47,1566,['n'],1,right,['9'],2,1912,[-0.24180211],92,47,medium,minus,dotcolour,beta,,,20,18,V,R,
161,35,35,3,1,33,47,915,['n'],1,right,['3'],4,591,[-0.11815466],81,47,medium,minus,dotcolour,beta,,,20,18,V,R,
162,36,36,3,1,47,33,915,['n'],0,left,['2'],5,661,[-0.17858332],94,47,medium,minus,dotcolour,beta,,,20,18,V,R,
163,37,37,3,1,53,27,699,['c'],1,left,['2'],5,423,[0.14460741],92,53,easy,minus,dotcolour,beta,,,20,18,V,R,
164,38,38,3,1,44,36,532,['c'],1,left,['2'],5,427,[0.07709369],64,44,hard,minus,dotcolour,beta,,,20,18,V,R,
165,39,39,3,1,44,36,614,['n'],0,left,['3'],4,1058,[0.08393808],8,44,hard,minus,dotcolour,beta,,,20,18,V,R,
166,40,40,3,1,53,27,564,['c'],1,left,['2'],5,467,[0.13339939],89,53,easy,minus,dotcolour,beta,,,20,18,V,R,
167,41,41,3,1,47,33,598,['c'],1,left,['3'],4,386,[0.15606024],95,47,medium,minus,dotcolour,beta,,,20,18,V,R,
168,42,0,4,1,44,36,783,['c'],1,left,['3'],4,496,[0.14065916],90,44,hard,minus,dotcolour,beta,,,20,18,V,R,
169,43,1,4,1,47,33,583,['n'],0,left,['3'],4,454,[0.15799217],0,47,medium,minus,dotcolour,beta,,,20,18,V,R,
170,44,2,4,1,27,53,664,['n'],1,right,['3'],4,523,[-0.17078604],95,53,easy,minus,dotcolour,beta,,,20,18,V,R,
171,45,3,4,1,44,36,748,['c'],1,left,['3'],4,633,[0.16680215],93,44,hard,minus,dotcolour,beta,,,20,18,V,R,
172,46,4,4,1,27,53,416,['n'],1,right,['2'],5,946,[-0.22120275],96,53,easy,minus,dotcolour,beta,,,20,18,V,R,
173,47,5,4,1,44,36,616,['c'],1,left,['3'],4,1117,[0.05064253],48,44,hard,minus,dotcolour,beta,,,20,18,V,R,
174,48,6,4,1,47,33,1383,['c'],1,left,['9'],2,995,[0.12977657],79,47,medium,minus,dotcolour,beta,,,20,18,V,R,
175,49,7,4,1,44,36,715,['n'],0,left,['3'],4,943,[-0.04444626],45,44,hard,minus,dotcolour,beta,,,20,18,V,R,
176,50,8,4,1,53,27,582,['c'],1,left,['3'],4,660,[0.22906026],98,53,easy,minus,dotcolour,beta,,,20,18,V,R,
177,51,9,4,1,47,33,748,['c'],1,left,['3'],4,613,[0.15377286],91,47,medium,minus,dotcolour,beta,,,20,18,V,R,
178,52,10,4,1,33,47,565,['n'],1,right,['3'],4,631,[-0.15208222],90,47,medium,minus,dotcolour,beta,,,20,18,V,R,
179,53,11,4,1,47,33,649,['c'],1,left,['8'],3,670,[0.10624124],75,47,medium,minus,dotcolour,beta,,,20,18,V,R,
180,54,12,4,1,44,36,633,['n'],0,left,['0'],1,883,[-0.01174723],30,44,hard,minus,dotcolour,beta,,,20,18,V,R,
181,55,13,4,1,27,53,883,['n'],1,right,['3'],4,590,[-0.05560435],50,53,easy,minus,dotcolour,beta,,,20,18,V,R,
182,56,14,4,1,47,33,897,['c'],1,left,['3'],4,1099,[0.08211494],61,47,medium,minus,dotcolour,beta,,,20,18,V,R,
183,57,15,4,1,36,44,499,['n'],1,right,['3'],4,661,[-0.08088735],64,44,hard,minus,dotcolour,beta,,,20,18,V,R,
184,58,16,4,1,36,44,615,['n'],1,right,['3'],4,579,[-0.03081161],36,44,hard,minus,dotcolour,beta,,,20,18,V,R,
185,59,17,4,1,36,44,898,['c'],0,right,['3'],4,1946,[-0.16189011],6,44,hard,minus,dotcolour,beta,,,20,18,V,R,
186,60,18,4,1,36,44,950,['c'],0,right,['3'],4,767,[-0.05312632],10,44,hard,minus,dotcolour,beta,,,20,18,V,R,
187,61,19,4,1,33,47,613,['n'],1,right,['3'],4,617,[-0.05787752],51,47,medium,minus,dotcolour,beta,,,20,18,V,R,
188,62,20,4,1,44,36,1215,['c'],1,left,['3'],4,617,[0.14973625],90,44,hard,minus,dotcolour,beta,,,20,18,V,R,
189,63,21,4,1,53,27,666,['c'],1,left,['3'],4,631,[0.00896764],26,53,easy,minus,dotcolour,beta,,,20,18,V,R,
190,64,22,4,1,53,27,1349,['c'],1,left,['3'],4,825,[0.19507325],94,53,easy,minus,dotcolour,beta,,,20,18,V,R,
191,65,23,4,1,36,44,1164,['n'],1,right,['3'],4,506,[-0.09855788],75,44,hard,minus,dotcolour,beta,,,20,18,V,R,
192,66,24,4,1,36,44,632,['c'],0,right,['3'],4,526,[0.00267927],21,44,hard,minus,dotcolour,beta,,,20,18,V,R,
193,67,25,4,1,33,47,732,['c'],0,right,['0'],1,1237,[-0.08815397],9,47,medium,minus,dotcolour,beta,,,20,18,V,R,
194,68,26,4,1,47,33,732,['n'],0,left,['9'],2,1247,[0.21690437],1,47,medium,minus,dotcolour,beta,,,20,18,V,R,
195,69,27,4,1,27,53,581,['n'],1,right,['3'],4,1087,[-0.21921744],94,53,easy,minus,dotcolour,beta,,,20,18,V,R,
196,70,28,4,1,53,27,632,['c'],1,left,['2'],5,580,[0.17086036],94,53,easy,minus,dotcolour,beta,,,20,18,V,R,
197,71,29,4,1,33,47,499,['n'],1,right,['3'],4,594,[-0.05639145],50,47,medium,minus,dotcolour,beta,,,20,18,V,R,
198,72,30,4,1,44,36,748,['n'],0,left,['3'],4,894,[0.08151429],7,44,hard,minus,dotcolour,beta,,,20,18,V,R,
199,73,31,4,1,27,53,665,['n'],1,right,['1'],6,497,[-0.08190196],66,53,easy,minus,dotcolour,beta,,,20,18,V,R,
200,74,32,4,1,33,47,849,['n'],1,right,['1'],6,580,[-0.24741332],99,47,medium,minus,dotcolour,beta,,,20,18,V,R,
201,75,33,4,1,53,27,650,['c'],1,left,['1'],6,333,[0.17262007],97,53,easy,minus,dotcolour,beta,,,20,18,V,R,
202,76,34,4,1,53,27,566,['n'],0,left,['0'],1,754,[0.15688942],1,53,easy,minus,dotcolour,beta,,,20,18,V,R,
203,77,35,4,1,33,47,799,['n'],1,right,['3'],4,582,[-0.06537546],56,47,medium,minus,dotcolour,beta,,,20,18,V,R,
204,78,36,4,1,36,44,749,['n'],1,right,['3'],4,425,[-0.13411121],90,44,hard,minus,dotcolour,beta,,,20,18,V,R,
205,79,37,4,1,47,33,599,['c'],1,left,['2'],5,826,[0.11768895],77,47,medium,minus,dotcolour,beta,,,20,18,V,R,
206,80,38,4,1,27,53,715,['n'],1,right,['2'],5,437,[-0.24397572],99,53,easy,minus,dotcolour,beta,,,20,18,V,R,
207,81,39,4,1,33,47,782,['n'],1,right,['1'],6,454,[-0.15379762],93,47,medium,minus,dotcolour,beta,,,20,18,V,R,
208,82,40,4,1,53,27,565,['c'],1,left,['1'],6,447,[0.21983929],99,53,easy,minus,dotcolour,beta,,,20,18,V,R,
209,83,41,4,1,27,53,548,['n'],1,right,['1'],6,408,[-0.11858535],86,53,easy,minus,dotcolour,beta,,,20,18,V,R,
210,84,0,5,1,44,36,916,['c'],1,left,['3'],4,765,[0.12584705],81,44,hard,minus,dotcolour,beta,,,20,18,V,R,
211,85,1,5,1,44,36,832,['c'],1,left,['3'],4,574,[0.16639375],93,44,hard,minus,dotcolour,beta,,,20,18,V,R,
212,86,2,5,1,44,36,582,['c'],1,left,['3'],4,609,[-0.04465711],9,44,hard,minus,dotcolour,beta,,,20,18,V,R,
213,87,3,5,1,53,27,465,['n'],0,left,['0'],1,720,[-0.00075208],24,53,easy,minus,dotcolour,beta,,,20,18,V,R,
214,88,4,5,1,44,36,732,['n'],0,left,['3'],4,599,[0.01366367],17,44,hard,minus,dotcolour,beta,,,20,18,V,R,
215,89,5,5,1,36,44,548,['n'],1,right,['3'],4,474,[0.03074753],9,44,hard,minus,dotcolour,beta,,,20,18,V,R,
216,90,6,5,1,27,53,449,['c'],0,right,['0'],1,711,[0.08616923],66,53,easy,minus,dotcolour,beta,,,20,18,V,R,
217,91,7,5,1,44,36,515,['n'],0,left,['0'],1,743,[-0.17420177],92,44,hard,minus,dotcolour,beta,,,20,18,V,R,
218,92,8,5,1,27,53,566,['c'],0,right,['0'],1,548,[-0.19859275],0,53,easy,minus,dotcolour,beta,,,20,18,V,R,
219,93,9,5,1,36,44,1314,['c'],0,right,['3'],4,675,[0.01461986],29,44,hard,minus,dotcolour,beta,,,20,18,V,R,
220,94,10,5,1,47,33,732,['n'],0,left,['8'],3,940,[0.06428508],10,47,medium,minus,dotcolour,beta,,,20,18,V,R,
221,95,11,5,1,27,53,550,['n'],1,right,['2'],5,2474,[-0.49829394],99,53,easy,minus,dotcolour,beta,,,20,18,V,R,
222,96,12,5,1,53,27,697,['c'],1,left,['2'],5,940,[0.16498395],88,53,easy,minus,dotcolour,beta,,,20,18,V,R,
223,97,13,5,1,33,47,665,['n'],1,right,['2'],5,389,[-0.13118931],90,47,medium,minus,dotcolour,beta,,,20,18,V,R,
224,98,14,5,1,47,33,665,['c'],1,left,['2'],5,532,[0.13103983],87,47,medium,minus,dotcolour,beta,,,20,18,V,R,
225,99,15,5,1,47,33,664,['n'],0,left,['2'],5,533,[-0.01458669],27,47,medium,minus,dotcolour,beta,,,20,18,V,R,
226,100,16,5,1,53,27,582,['n'],0,left,['0'],1,778,[0.22793914],0,53,easy,minus,dotcolour,beta,,,20,18,V,R,
227,101,17,5,1,47,33,699,['c'],1,left,['3'],4,881,[0.15347438],87,47,medium,minus,dotcolour,beta,,,20,18,V,R,
228,102,18,5,1,27,53,864,['n'],1,right,['3'],4,621,[-0.16070633],92,53,easy,minus,dotcolour,beta,,,20,18,V,R,
229,103,19,5,1,33,47,548,['n'],1,right,['3'],4,615,[-0.00963833],26,47,medium,minus,dotcolour,beta,,,20,18,V,R,
230,104,20,5,1,53,27,699,['n'],0,left,['0'],1,516,[0.07213856],4,53,easy,minus,dotcolour,beta,,,20,18,V,R,
231,105,21,5,1,33,47,732,['n'],1,right,['2'],5,620,[-0.05589339],50,47,medium,minus,dotcolour,beta,,,20,18,V,R,
232,106,22,5,1,36,44,1065,['n'],1,right,['2'],5,561,[-0.05926618],52,44,hard,minus,dotcolour,beta,,,20,18,V,R,
233,107,23,5,1,27,53,666,['n'],1,right,['1'],6,458,[-0.1068129],80,53,easy,minus,dotcolour,beta,,,20,18,V,R,
234,108,24,5,1,44,36,749,['c'],1,left,['8'],3,667,[0.22063671],97,44,hard,minus,dotcolour,beta,,,20,18,V,R,
235,109,25,5,1,53,27,699,['c'],1,left,['3'],4,534,[0.11574545],81,53,easy,minus,dotcolour,beta,,,20,18,V,R,
236,110,26,5,1,47,33,515,['c'],1,left,['1'],6,885,[0.27582337],99,47,medium,minus,dotcolour,beta,,,20,18,V,R,
237,111,27,5,1,27,53,615,['n'],1,right,['1'],6,603,[-0.15738403],91,53,easy,minus,dotcolour,beta,,,20,18,V,R,
238,112,28,5,1,36,44,416,['n'],1,right,['8'],3,724,[-0.0966177],70,44,hard,minus,dotcolour,beta,,,20,18,V,R,
239,113,29,5,1,53,27,634,['c'],1,left,['2'],5,799,[0.28476216],99,53,easy,minus,dotcolour,beta,,,20,18,V,R,
240,114,30,5,1,36,44,717,['c'],0,right,['8'],3,1564,[-0.1967121],3,44,hard,minus,dotcolour,beta,,,20,18,V,R,
241,115,31,5,1,44,36,1299,['c'],1,left,['2'],5,898,[0.32796782],99,44,hard,minus,dotcolour,beta,,,20,18,V,R,
242,116,32,5,1,33,47,832,['n'],1,right,['2'],5,390,[-0.07578233],64,47,medium,minus,dotcolour,beta,,,20,18,V,R,
243,117,33,5,1,33,47,632,['n'],1,right,['2'],5,471,[-0.20562485],98,47,medium,minus,dotcolour,beta,,,20,18,V,R,
244,118,34,5,1,27,53,716,['n'],1,right,['2'],5,352,[-0.10583894],82,53,easy,minus,dotcolour,beta,,,20,18,V,R,
245,119,35,5,1,47,33,614,['c'],1,left,['2'],5,428,[0.07555677],63,47,medium,minus,dotcolour,beta,,,20,18,V,R,
246,120,36,5,1,47,33,949,['n'],0,left,['9'],2,694,[0.08921662],4,47,medium,minus,dotcolour,beta,,,20,18,V,R,
247,121,37,5,1,36,44,649,['n'],1,right,['2'],5,593,[-0.19116411],96,44,hard,minus,dotcolour,beta,,,20,18,V,R,
248,122,38,5,1,33,47,582,['n'],1,right,['2'],5,884,[-0.25514838],98,47,medium,minus,dotcolour,beta,,,20,18,V,R,
249,123,39,5,1,33,47,548,['n'],1,right,['2'],5,428,[-0.10225266],78,47,medium,minus,dotcolour,beta,,,20,18,V,R,
250,124,40,5,1,53,27,697,['c'],1,left,['2'],5,433,[0.18990799],98,53,easy,minus,dotcolour,beta,,,20,18,V,R,
251,125,41,5,1,36,44,1065,['n'],1,right,['8'],3,2118,[-0.08084295],58,44,hard,minus,dotcolour,beta,,,20,18,V,R,
252,0,0,6,2,44,36,766,['c'],1,left,['3'],4,633,[0.1220024],98,44,hard,plus,dotcolour,beta,,,20,18,V,R,
253,1,1,6,2,47,33,729,['c'],1,left,['3'],4,1029,[0.21590976],99,47,medium,plus,dotcolour,beta,,,20,18,V,R,
254,2,2,6,2,47,33,716,['c'],1,left,['3'],4,728,[0.07552425],94,47,medium,plus,dotcolour,beta,,,20,18,V,R,
255,3,3,6,2,44,36,629,['c'],1,left,['3'],4,499,[0.19689128],100,44,hard,plus,dotcolour,beta,,,20,18,V,R,
256,4,4,6,2,36,44,833,['c'],0,right,['3'],4,704,[0.07778591],95,44,hard,plus,dotcolour,beta,,,20,18,V,R,
257,5,5,6,2,33,47,616,['c'],0,right,['0'],1,1853,[0.00154825],68,47,medium,plus,dotcolour,beta,,,20,18,V,R,
258,6,6,6,2,27,53,614,['n'],1,right,['3'],4,530,[-0.14358303],99,53,easy,plus,dotcolour,beta,,,20,18,V,R,
259,7,7,6,2,47,33,632,['c'],1,left,['3'],4,918,[0.384643],100,47,medium,plus,dotcolour,beta,,,20,18,V,R,
260,8,8,6,2,47,33,849,['n'],0,left,['9'],2,1377,[0.13447644],23,47,medium,plus,dotcolour,beta,,,20,18,V,R,
261,9,9,6,2,33,47,598,['n'],1,right,['3'],4,562,[-0.24594501],100,47,medium,plus,dotcolour,beta,,,20,18,V,R,
262,10,10,6,2,53,27,849,['c'],1,left,['1'],6,572,[0.15096934],99,53,easy,plus,dotcolour,beta,,,20,18,V,R,
263,11,11,6,2,47,33,597,['n'],0,left,['0'],1,822,[-0.01825398],81,47,medium,plus,dotcolour,beta,,,20,18,V,R,
264,12,12,6,2,36,44,714,['n'],1,right,['3'],4,601,[-0.08244991],96,44,hard,plus,dotcolour,beta,,,20,18,V,R,
265,13,13,6,2,44,36,718,['c'],1,left,['2'],5,959,[0.05963606],89,44,hard,plus,dotcolour,beta,,,20,18,V,R,
266,14,14,6,2,44,36,815,['c'],1,left,['2'],5,649,[0.03277078],88,44,hard,plus,dotcolour,beta,,,20,18,V,R,
267,15,15,6,2,27,53,683,['n'],1,right,['2'],5,589,[-0.1598479],99,53,easy,plus,dotcolour,beta,,,20,18,V,R,
268,16,16,6,2,27,53,532,['n'],1,right,['2'],5,498,[-0.13104316],99,53,easy,plus,dotcolour,beta,,,20,18,V,R,
269,17,17,6,2,33,47,564,['n'],1,right,['2'],5,545,[-0.03680315],90,47,medium,plus,dotcolour,beta,,,20,18,V,R,
270,18,18,6,2,44,36,516,['c'],1,left,['2'],5,824,[0.17104392],99,44,hard,plus,dotcolour,beta,,,20,18,V,R,
271,19,19,6,2,36,44,631,['c'],0,right,['8'],3,855,[0.11794796],97,44,hard,plus,dotcolour,beta,,,20,18,V,R,
272,20,20,6,2,53,27,716,['c'],1,left,['3'],4,577,[0.19053208],100,53,easy,plus,dotcolour,beta,,,20,18,V,R,
273,21,21,6,2,44,36,816,['c'],1,left,['2'],5,475,[0.10433451],98,44,hard,plus,dotcolour,beta,,,20,18,V,R,
274,22,22,6,2,53,27,715,['n'],0,left,['0'],1,716,[-0.03025636],86,53,easy,plus,dotcolour,beta,,,20,18,V,R,
275,23,23,6,2,47,33,849,['c'],1,left,['2'],5,591,[0.2865906],100,47,medium,plus,dotcolour,beta,,,20,18,V,R,
276,24,24,6,2,27,53,763,['c'],0,right,['9'],2,730,[-0.02316301],66,53,easy,plus,dotcolour,beta,,,20,18,V,R,
277,25,25,6,2,53,27,765,['c'],1,left,['3'],4,592,[0.08414278],96,53,easy,plus,dotcolour,beta,,,20,18,V,R,
278,26,26,6,2,53,27,749,['c'],1,left,['2'],5,651,[0.15599794],99,53,easy,plus,dotcolour,beta,,,20,18,V,R,
279,27,27,6,2,36,44,633,['n'],1,right,['2'],5,401,[-0.13524013],100,44,hard,plus,dotcolour,beta,,,20,18,V,R,
280,28,28,6,2,44,36,498,['c'],1,left,['2'],5,751,[0.07905081],94,44,hard,plus,dotcolour,beta,,,20,18,V,R,
281,29,29,6,2,47,33,632,['c'],1,left,['2'],5,401,[0.04414128],94,47,medium,plus,dotcolour,beta,,,20,18,V,R,
282,30,30,6,2,27,53,716,['n'],1,right,['2'],5,414,[0.01413417],76,53,easy,plus,dotcolour,beta,,,20,18,V,R,
283,31,31,6,2,53,27,648,['n'],0,left,['0'],1,829,[0.07304421],41,53,easy,plus,dotcolour,beta,,,20,18,V,R,
284,32,32,6,2,36,44,1583,['c'],0,right,['2'],5,518,[0.1455257],99,44,hard,plus,dotcolour,beta,,,20,18,V,R,
285,33,33,6,2,33,47,784,['c'],0,right,['2'],5,572,[-0.09448612],28,47,medium,plus,dotcolour,beta,,,20,18,V,R,
286,34,34,6,2,33,47,599,['n'],1,right,['3'],4,750,[-0.26660689],100,47,medium,plus,dotcolour,beta,,,20,18,V,R,
287,35,35,6,2,36,44,632,['n'],1,right,['3'],4,601,[-0.16134454],99,44,hard,plus,dotcolour,beta,,,20,18,V,R,
288,36,36,6,2,53,27,616,['c'],1,left,['2'],5,705,[0.14398641],99,53,easy,plus,dotcolour,beta,,,20,18,V,R,
289,37,37,6,2,27,53,580,['n'],1,right,['1'],6,543,[-0.17509459],100,53,easy,plus,dotcolour,beta,,,20,18,V,R,
290,38,38,6,2,33,47,900,['n'],1,right,['2'],5,598,[-0.08341187],96,47,medium,plus,dotcolour,beta,,,20,18,V,R,
291,39,39,6,2,27,53,629,['n'],1,right,['3'],4,1151,[-0.43028595],100,53,easy,plus,dotcolour,beta,,,20,18,V,R,
292,40,40,6,2,33,47,732,['n'],1,right,['3'],4,524,[-0.24309991],100,47,medium,plus,dotcolour,beta,,,20,18,V,R,
293,41,41,6,2,36,44,1181,['n'],1,right,['2'],5,441,[-0.0393608],93,44,hard,plus,dotcolour,beta,,,20,18,V,R,
294,42,0,7,2,27,53,700,['n'],1,right,['1'],6,505,[-0.04094765],92,53,easy,plus,dotcolour,beta,,,20,18,V,R,
295,43,1,7,2,47,33,983,['c'],1,left,['3'],4,631,[0.14667631],99,47,medium,plus,dotcolour,beta,,,20,18,V,R,
296,44,2,7,2,36,44,616,['n'],1,right,['3'],4,366,[-0.15474933],100,44,hard,plus,dotcolour,beta,,,20,18,V,R,
297,45,3,7,2,27,53,547,['n'],1,right,['1'],6,347,[-0.0642441],97,53,easy,plus,dotcolour,beta,,,20,18,V,R,
298,46,4,7,2,47,33,682,['c'],1,left,['2'],5,380,[0.07362678],98,47,medium,plus,dotcolour,beta,,,20,18,V,R,
299,47,5,7,2,33,47,532,['n'],1,right,['2'],5,400,[-0.27024905],100,47,medium,plus,dotcolour,beta,,,20,18,V,R,
300,48,6,7,2,36,44,666,['n'],1,right,['3'],4,351,[-0.07894024],98,44,hard,plus,dotcolour,beta,,,20,18,V,R,
301,49,7,7,2,53,27,564,['n'],0,left,['0'],1,820,[0.08572462],35,53,easy,plus,dotcolour,beta,,,20,18,V,R,
302,50,8,7,2,47,33,715,['c'],1,left,['3'],4,624,[0.13641312],99,47,medium,plus,dotcolour,beta,,,20,18,V,R,
303,51,9,7,2,53,27,548,['n'],0,left,['0'],1,1130,[0.09085206],35,53,easy,plus,dotcolour,beta,,,20,18,V,R,
304,52,10,7,2,36,44,797,['n'],1,right,['3'],4,662,[-0.10652618],97,44,hard,plus,dotcolour,beta,,,20,18,V,R,
305,53,11,7,2,53,27,767,['c'],1,left,['2'],5,511,[0.18482974],100,53,easy,plus,dotcolour,beta,,,20,18,V,R,
306,54,12,7,2,53,27,649,['c'],1,left,['2'],5,642,[0.18707619],100,53,easy,plus,dotcolour,beta,,,20,18,V,R,
307,55,13,7,2,53,27,530,['n'],0,left,['2'],5,540,[0.05413054],51,53,easy,plus,dotcolour,beta,,,20,18,V,R,
308,56,14,7,2,33,47,732,['c'],0,right,['3'],4,1291,[-0.25454814],4,47,medium,plus,dotcolour,beta,,,20,18,V,R,
309,57,15,7,2,27,53,765,['n'],1,right,['2'],5,553,[-0.23762635],100,53,easy,plus,dotcolour,beta,,,20,18,V,R,
310,58,16,7,2,27,53,565,['n'],1,right,['2'],5,518,[-0.09422845],98,53,easy,plus,dotcolour,beta,,,20,18,V,R,
311,59,17,7,2,36,44,700,['n'],1,right,['3'],4,592,[-0.1358795],99,44,hard,plus,dotcolour,beta,,,20,18,V,R,
312,60,18,7,2,44,36,647,['c'],1,left,['3'],4,503,[-0.03835303],61,44,hard,plus,dotcolour,beta,,,20,18,V,R,
313,61,19,7,2,36,44,632,['n'],1,right,['3'],4,547,[-0.09755898],98,44,hard,plus,dotcolour,beta,,,20,18,V,R,
314,62,20,7,2,33,47,613,['n'],1,right,['2'],5,454,[-0.0762801],97,47,medium,plus,dotcolour,beta,,,20,18,V,R,
315,63,21,7,2,53,27,613,['c'],1,left,['2'],5,500,[0.2791027],100,53,easy,plus,dotcolour,beta,,,20,18,V,R,
316,64,22,7,2,27,53,514,['n'],1,right,['2'],5,557,[-0.21704404],100,53,easy,plus,dotcolour,beta,,,20,18,V,R,
317,65,23,7,2,47,33,814,['c'],1,left,['2'],5,408,[0.11674298],99,47,medium,plus,dotcolour,beta,,,20,18,V,R,
318,66,24,7,2,33,47,749,['n'],1,right,['1'],6,346,[-0.15043293],100,47,medium,plus,dotcolour,beta,,,20,18,V,R,
319,67,25,7,2,33,47,583,['c'],0,right,['2'],5,583,[0.0765202],96,47,medium,plus,dotcolour,beta,,,20,18,V,R,
320,68,26,7,2,47,33,583,['c'],1,left,['2'],5,418,[0.03015218],92,47,medium,plus,dotcolour,beta,,,20,18,V,R,
321,69,27,7,2,27,53,616,['n'],1,right,['2'],5,587,[0.02773784],66,53,easy,plus,dotcolour,beta,,,20,18,V,R,
322,70,28,7,2,53,27,448,['c'],1,left,['1'],6,715,[0.2760119],100,53,easy,plus,dotcolour,beta,,,20,18,V,R,
323,71,29,7,2,44,36,748,['n'],0,left,['3'],4,506,[0.08755878],31,44,hard,plus,dotcolour,beta,,,20,18,V,R,
324,72,30,7,2,27,53,498,['n'],1,right,['2'],5,443,[-0.18537882],100,53,easy,plus,dotcolour,beta,,,20,18,V,R,
325,73,31,7,2,36,44,565,['n'],1,right,['2'],5,532,[-0.15201309],99,44,hard,plus,dotcolour,beta,,,20,18,V,R,
326,74,32,7,2,44,36,815,['c'],1,left,['3'],4,999,[-0.11997884],24,44,hard,plus,dotcolour,beta,,,20,18,V,R,
327,75,33,7,2,44,36,616,['n'],0,left,['0'],1,840,[-0.04789745],88,44,hard,plus,dotcolour,beta,,,20,18,V,R,
328,76,34,7,2,44,36,832,['c'],1,left,['2'],5,806,[0.21741687],100,44,hard,plus,dotcolour,beta,,,20,18,V,R,
329,77,35,7,2,33,47,649,['n'],1,right,['2'],5,414,[-0.17130888],100,47,medium,plus,dotcolour,beta,,,20,18,V,R,
330,78,36,7,2,36,44,532,['n'],1,right,['2'],5,585,[-0.09457276],97,44,hard,plus,dotcolour,beta,,,20,18,V,R,
331,79,37,7,2,33,47,515,['n'],1,right,['2'],5,614,[-0.07360663],95,47,medium,plus,dotcolour,beta,,,20,18,V,R,
332,80,38,7,2,44,36,615,['c'],1,left,['2'],5,519,[0.08084697],97,44,hard,plus,dotcolour,beta,,,20,18,V,R,
333,81,39,7,2,47,33,500,['c'],1,left,['3'],4,551,[0.17545873],100,47,medium,plus,dotcolour,beta,,,20,18,V,R,
334,82,40,7,2,47,33,698,['c'],1,left,['2'],5,535,[0.29123828],100,47,medium,plus,dotcolour,beta,,,20,18,V,R,
335,83,41,7,2,44,36,914,['n'],0,left,['8'],3,1351,[-0.12830768],95,44,hard,plus,dotcolour,beta,,,20,18,V,R,
336,84,0,8,2,47,33,766,['c'],1,left,['2'],5,503,[0.18776634],100,47,medium,plus,dotcolour,beta,,,20,18,V,R,
337,85,1,8,2,53,27,597,['c'],1,left,['3'],4,604,[0.06771294],95,53,easy,plus,dotcolour,beta,,,20,18,V,R,
338,86,2,8,2,44,36,699,['n'],0,left,['8'],3,1066,[0.01890024],65,44,hard,plus,dotcolour,beta,,,20,18,V,R,
339,87,3,8,2,33,47,565,['n'],1,right,['2'],5,466,[-0.02992662],90,47,medium,plus,dotcolour,beta,,,20,18,V,R,
340,88,4,8,2,53,27,681,['c'],1,left,['1'],6,413,[0.18188946],100,53,easy,plus,dotcolour,beta,,,20,18,V,R,
341,89,5,8,2,44,36,599,['c'],1,left,['2'],5,566,[0.170374],100,44,hard,plus,dotcolour,beta,,,20,18,V,R,
342,90,6,8,2,47,33,499,['c'],1,left,['2'],5,477,[0.15083084],100,47,medium,plus,dotcolour,beta,,,20,18,V,R,
343,91,7,8,2,47,33,615,['c'],1,left,['2'],5,419,[0.14964309],100,47,medium,plus,dotcolour,beta,,,20,18,V,R,
344,92,8,8,2,33,47,567,['n'],1,right,['2'],5,445,[-0.03919403],93,47,medium,plus,dotcolour,beta,,,20,18,V,R,
345,93,9,8,2,44,36,582,['c'],1,left,['3'],4,541,[0.06698822],95,44,hard,plus,dotcolour,beta,,,20,18,V,R,
346,94,10,8,2,36,44,767,['n'],1,right,['2'],5,330,[-0.11171558],99,44,hard,plus,dotcolour,beta,,,20,18,V,R,
347,95,11,8,2,27,53,632,['n'],1,right,['2'],5,477,[-0.18316949],100,53,easy,plus,dotcolour,beta,,,20,18,V,R,
348,96,12,8,2,33,47,682,['n'],1,right,['2'],5,472,[-0.14114451],99,47,medium,plus,dotcolour,beta,,,20,18,V,R,
349,97,13,8,2,36,44,533,['c'],0,right,['0'],1,513,[-0.06351255],45,44,hard,plus,dotcolour,beta,,,20,18,V,R,
350,98,14,8,2,53,27,716,['c'],1,left,['2'],5,585,[0.12886693],99,53,easy,plus,dotcolour,beta,,,20,18,V,R,
351,99,15,8,2,36,44,748,['n'],1,right,['3'],4,597,[-0.08605132],96,44,hard,plus,dotcolour,beta,,,20,18,V,R,
352,100,16,8,2,47,33,682,['c'],1,left,['3'],4,363,[0.05785766],97,47,medium,plus,dotcolour,beta,,,20,18,V,R,
353,101,17,8,2,53,27,600,['c'],1,left,['3'],4,503,[0.19225757],100,53,easy,plus,dotcolour,beta,,,20,18,V,R,
354,102,18,8,2,36,44,515,['n'],1,right,['3'],4,423,[0.00034521],82,44,hard,plus,dotcolour,beta,,,20,18,V,R,
355,103,19,8,2,47,33,499,['c'],1,left,['3'],4,459,[0.00647781],84,47,medium,plus,dotcolour,beta,,,20,18,V,R,
356,104,20,8,2,27,53,614,['n'],1,right,['3'],4,689,[-0.18158407],99,53,easy,plus,dotcolour,beta,,,20,18,V,R,
357,105,21,8,2,53,27,881,['c'],1,left,['3'],4,548,[0.16518073],100,53,easy,plus,dotcolour,beta,,,20,18,V,R,
358,106,22,8,2,27,53,598,['c'],0,right,['0'],1,527,[0.0928689],98,53,easy,plus,dotcolour,beta,,,20,18,V,R,
359,107,23,8,2,36,44,681,['c'],0,right,['8'],3,1072,[0.06344847],89,44,hard,plus,dotcolour,beta,,,20,18,V,R,
360,108,24,8,2,27,53,582,['n'],1,right,['1'],6,359,[-0.07203307],98,53,easy,plus,dotcolour,beta,,,20,18,V,R,
361,109,25,8,2,27,53,533,['n'],1,right,['1'],6,389,[-0.08232845],98,53,easy,plus,dotcolour,beta,,,20,18,V,R,
362,110,26,8,2,44,36,831,['c'],1,left,['2'],5,405,[0.05496067],96,44,hard,plus,dotcolour,beta,,,20,18,V,R,
363,111,27,8,2,33,47,532,['n'],1,right,['1'],6,409,[-0.17511035],100,47,medium,plus,dotcolour,beta,,,20,18,V,R,
364,112,28,8,2,27,53,682,['n'],1,right,['1'],6,383,[-0.185724],100,53,easy,plus,dotcolour,beta,,,20,18,V,R,
365,113,29,8,2,36,44,466,['n'],1,right,['3'],4,534,[-0.11946965],99,44,hard,plus,dotcolour,beta,,,20,18,V,R,
366,114,30,8,2,27,53,449,['n'],1,right,['2'],5,497,[-0.16525164],100,53,easy,plus,dotcolour,beta,,,20,18,V,R,
367,115,31,8,2,53,27,517,['c'],1,left,['2'],5,506,[0.1773711],100,53,easy,plus,dotcolour,beta,,,20,18,V,R,
368,116,32,8,2,44,36,1100,['n'],0,left,['3'],4,595,[-0.05941078],94,44,hard,plus,dotcolour,beta,,,20,18,V,R,
369,117,33,8,2,33,47,731,['n'],1,right,['2'],5,359,[-0.08662304],99,47,medium,plus,dotcolour,beta,,,20,18,V,R,
370,118,34,8,2,47,33,713,['c'],1,left,['1'],6,406,[0.06811635],97,47,medium,plus,dotcolour,beta,,,20,18,V,R,
371,119,35,8,2,44,36,849,['n'],0,left,['3'],4,492,[-0.08096229],97,44,hard,plus,dotcolour,beta,,,20,18,V,R,
372,120,36,8,2,47,33,499,['c'],1,left,['2'],5,438,[0.0916367],98,47,medium,plus,dotcolour,beta,,,20,18,V,R,
373,121,37,8,2,53,27,750,['c'],1,left,['2'],5,464,[0.20880331],100,53,easy,plus,dotcolour,beta,,,20,18,V,R,
374,122,38,8,2,36,44,680,['n'],1,right,['3'],4,596,[-0.19402283],100,44,hard,plus,dotcolour,beta,,,20,18,V,R,
375,123,39,8,2,33,47,548,['n'],1,right,['2'],5,655,[-0.16595754],99,47,medium,plus,dotcolour,beta,,,20,18,V,R,
376,124,40,8,2,44,36,566,['c'],1,left,['2'],5,456,[0.12543089],99,44,hard,plus,dotcolour,beta,,,20,18,V,R,
377,125,41,8,2,33,47,482,['c'],0,right,['3'],4,619,[0.03160692],88,47,medium,plus,dotcolour,beta,,,20,18,V,R,
378,0,0,9,3,36,44,716,['n'],1,right,['2'],5,390,[-0.10570059],81,44,hard,minus,dotcolour,beta,,,20,18,V,R,
379,1,1,9,3,53,27,532,['n'],0,left,['0'],1,506,[0.07788062],3,53,easy,minus,dotcolour,beta,,,20,18,V,R,
380,2,2,9,3,44,36,949,['n'],0,left,['8'],3,625,[-0.12014924],81,44,hard,minus,dotcolour,beta,,,20,18,V,R,
381,3,3,9,3,33,47,565,['n'],1,right,['2'],5,451,[-0.08134862],67,47,medium,minus,dotcolour,beta,,,20,18,V,R,
382,4,4,9,3,53,27,599,['c'],1,left,['2'],5,474,[0.04839198],45,53,easy,minus,dotcolour,beta,,,20,18,V,R,
383,5,5,9,3,27,53,582,['n'],1,right,['2'],5,417,[-0.06077143],54,53,easy,minus,dotcolour,beta,,,20,18,V,R,
384,6,6,9,3,53,27,664,['n'],0,left,['8'],3,1223,[0.14094087],4,53,easy,minus,dotcolour,beta,,,20,18,V,R,
385,7,7,9,3,33,47,631,['n'],1,right,['2'],5,431,[-0.06418454],56,47,medium,minus,dotcolour,beta,,,20,18,V,R,
386,8,8,9,3,33,47,631,['n'],1,right,['2'],5,341,[0.03216356],6,47,medium,minus,dotcolour,beta,,,20,18,V,R,
387,9,9,9,3,27,53,631,['n'],1,right,['1'],6,399,[-0.12440489],88,53,easy,minus,dotcolour,beta,,,20,18,V,R,
388,10,10,9,3,47,33,567,['c'],1,left,['1'],6,530,[0.20993149],98,47,medium,minus,dotcolour,beta,,,20,18,V,R,
389,11,11,9,3,33,47,833,['c'],0,right,['8'],3,925,[-0.12592386],3,47,medium,minus,dotcolour,beta,,,20,18,V,R,
390,12,12,9,3,53,27,815,['c'],1,left,['2'],5,625,[0.12648127],83,53,easy,minus,dotcolour,beta,,,20,18,V,R,
391,13,13,9,3,44,36,699,['n'],0,left,['8'],3,733,[0.27549935],0,44,hard,minus,dotcolour,beta,,,20,18,V,R,
392,14,14,9,3,53,27,498,['c'],1,left,['2'],5,750,[0.12550285],81,53,easy,minus,dotcolour,beta,,,20,18,V,R,
393,15,15,9,3,44,36,764,['c'],1,left,['2'],5,539,[0.03462359],37,44,hard,minus,dotcolour,beta,,,20,18,V,R,
394,16,16,9,3,27,53,482,['n'],1,right,['2'],5,451,[-0.03188252],35,53,easy,minus,dotcolour,beta,,,20,18,V,R,
395,17,17,9,3,27,53,598,['n'],1,right,['2'],5,506,[-0.16636549],94,53,easy,minus,dotcolour,beta,,,20,18,V,R,
396,18,18,9,3,36,44,549,['c'],0,right,['3'],4,1297,[-0.00401341],28,44,hard,minus,dotcolour,beta,,,20,18,V,R,
397,19,19,9,3,47,33,782,['c'],1,left,['2'],5,478,[0.09059301],71,47,medium,minus,dotcolour,beta,,,20,18,V,R,
398,20,20,9,3,33,47,767,['n'],1,right,['2'],5,622,[-0.15540154],91,47,medium,minus,dotcolour,beta,,,20,18,V,R,
399,21,21,9,3,44,36,532,['n'],0,left,['3'],4,506,[0.12215097],1,44,hard,minus,dotcolour,beta,,,20,18,V,R,
400,22,22,9,3,47,33,748,['c'],1,left,['3'],4,400,[0.05032121],46,47,medium,minus,dotcolour,beta,,,20,18,V,R,
401,23,23,9,3,47,33,615,['c'],1,left,['2'],5,561,[0.14544612],90,47,medium,minus,dotcolour,beta,,,20,18,V,R,
402,24,24,9,3,36,44,698,['n'],1,right,['2'],5,424,[-0.18819351],98,44,hard,minus,dotcolour,beta,,,20,18,V,R,
403,25,25,9,3,33,47,648,['n'],1,right,['2'],5,454,[-0.21467072],99,47,medium,minus,dotcolour,beta,,,20,18,V,R,
404,26,26,9,3,44,36,832,['c'],1,left,['3'],4,588,[0.07628112],62,44,hard,minus,dotcolour,beta,,,20,18,V,R,
405,27,27,9,3,44,36,732,['c'],1,left,['3'],4,465,[0.15063135],92,44,hard,minus,dotcolour,beta,,,20,18,V,R,
406,28,28,9,3,44,36,748,['n'],0,left,['3'],4,425,[-0.05444189],49,44,hard,minus,dotcolour,beta,,,20,18,V,R,
407,29,29,9,3,27,53,583,['n'],1,right,['3'],4,579,[-0.17997886],95,53,easy,minus,dotcolour,beta,,,20,18,V,R,
408,30,30,9,3,53,27,682,['c'],1,left,['2'],5,714,[0.20649164],96,53,easy,minus,dotcolour,beta,,,20,18,V,R,
409,31,31,9,3,47,33,698,['c'],1,left,['8'],3,907,[0.15458679],87,47,medium,minus,dotcolour,beta,,,20,18,V,R,
410,32,32,9,3,27,53,731,['n'],1,right,['2'],5,1123,[-0.27365361],98,53,easy,minus,dotcolour,beta,,,20,18,V,R,
411,33,33,9,3,53,27,599,['c'],1,left,['2'],5,439,[0.04433269],42,53,easy,minus,dotcolour,beta,,,20,18,V,R,
412,34,34,9,3,36,44,682,['c'],0,right,['2'],5,491,[0.10020639],76,44,hard,minus,dotcolour,beta,,,20,18,V,R,
413,35,35,9,3,36,44,684,['c'],0,right,['2'],5,526,[0.04202883],42,44,hard,minus,dotcolour,beta,,,20,18,V,R,
414,36,36,9,3,47,33,565,['c'],1,left,['2'],5,603,[0.0926332],70,47,medium,minus,dotcolour,beta,,,20,18,V,R,
415,37,37,9,3,36,44,833,['n'],1,right,['2'],5,699,[-0.09201592],69,44,hard,minus,dotcolour,beta,,,20,18,V,R,
416,38,38,9,3,33,47,965,['c'],0,right,['8'],3,1058,[0.010464],31,47,medium,minus,dotcolour,beta,,,20,18,V,R,
417,39,39,9,3,27,53,567,['n'],1,right,['2'],5,770,[-0.30213201],99,53,easy,minus,dotcolour,beta,,,20,18,V,R,
418,40,40,9,3,36,44,747,['n'],1,right,['2'],5,615,[-0.17303829],94,44,hard,minus,dotcolour,beta,,,20,18,V,R,
419,41,41,9,3,47,33,732,['c'],1,left,['2'],5,395,[0.05586891],50,47,medium,minus,dotcolour,beta,,,20,18,V,R,
420,42,0,10,3,53,27,683,['c'],1,left,['2'],5,379,[0.03563566],36,53,easy,minus,dotcolour,beta,,,20,18,V,R,
421,43,1,10,3,27,53,532,['n'],1,right,['1'],6,384,[-0.04190435],40,53,easy,minus,dotcolour,beta,,,20,18,V,R,
422,44,2,10,3,53,27,568,['c'],1,left,['1'],6,388,[0.15393379],94,53,easy,minus,dotcolour,beta,,,20,18,V,R,
423,45,3,10,3,44,36,565,['n'],0,left,['3'],4,439,[0.01900993],12,44,hard,minus,dotcolour,beta,,,20,18,V,R,
424,46,4,10,3,27,53,415,['c'],0,right,['8'],3,686,[-0.02417754],15,53,easy,minus,dotcolour,beta,,,20,18,V,R,
425,47,5,10,3,47,33,749,['c'],1,left,['3'],4,847,[0.18494502],93,47,medium,minus,dotcolour,beta,,,20,18,V,R,
426,48,6,10,3,47,33,596,['c'],1,left,['3'],4,606,[0.18588262],95,47,medium,minus,dotcolour,beta,,,20,18,V,R,
427,49,7,10,3,53,27,616,['c'],1,left,['2'],5,726,[0.1165828],78,53,easy,minus,dotcolour,beta,,,20,18,V,R,
428,50,8,10,3,44,36,731,['n'],0,left,['3'],4,1357,[-0.08224944],60,44,hard,minus,dotcolour,beta,,,20,18,V,R,
429,51,9,10,3,36,44,748,['n'],1,right,['3'],4,698,[-0.06891334],57,44,hard,minus,dotcolour,beta,,,20,18,V,R,
430,52,10,10,3,33,47,964,['c'],0,right,['2'],5,761,[-0.09482225],4,47,medium,minus,dotcolour,beta,,,20,18,V,R,
431,53,11,10,3,36,44,863,['c'],0,right,['2'],5,1546,[-0.09166885],11,44,hard,minus,dotcolour,beta,,,20,18,V,R,
432,54,12,10,3,47,33,632,['c'],1,left,['3'],4,820,[0.11888367],78,47,medium,minus,dotcolour,beta,,,20,18,V,R,
433,55,13,10,3,27,53,631,['n'],1,right,['3'],4,1091,[-0.08384007],62,53,easy,minus,dotcolour,beta,,,20,18,V,R,
434,56,14,10,3,27,53,515,['c'],0,right,['0'],1,604,[0.07188723],59,53,easy,minus,dotcolour,beta,,,20,18,V,R,
435,57,15,10,3,44,36,1333,['c'],1,left,['2'],5,688,[0.14343176],87,44,hard,minus,dotcolour,beta,,,20,18,V,R,
436,58,16,10,3,27,53,733,['n'],1,right,['1'],6,560,[-0.13451174],87,53,easy,minus,dotcolour,beta,,,20,18,V,R,
437,59,17,10,3,27,53,647,['n'],1,right,['3'],4,522,[-0.03738805],39,53,easy,minus,dotcolour,beta,,,20,18,V,R,
438,60,18,10,3,33,47,766,['n'],1,right,['2'],5,663,[-0.18463215],95,47,medium,minus,dotcolour,beta,,,20,18,V,R,
439,61,19,10,3,47,33,581,['c'],1,left,['2'],5,455,[0.12782203],87,47,medium,minus,dotcolour,beta,,,20,18,V,R,
440,62,20,10,3,36,44,615,['n'],1,right,['2'],5,517,[-0.14584507],91,44,hard,minus,dotcolour,beta,,,20,18,V,R,
441,63,21,10,3,47,33,665,['c'],1,left,['2'],5,608,[0.15967498],92,47,medium,minus,dotcolour,beta,,,20,18,V,R,
442,64,22,10,3,44,36,650,['c'],1,left,['2'],5,623,[0.0111089],27,44,hard,minus,dotcolour,beta,,,20,18,V,R,
443,65,23,10,3,33,47,698,['n'],1,right,['1'],6,387,[-0.21235236],99,47,medium,minus,dotcolour,beta,,,20,18,V,R,
444,66,24,10,3,33,47,548,['n'],1,right,['2'],5,502,[-0.07564085],62,47,medium,minus,dotcolour,beta,,,20,18,V,R,
445,67,25,10,3,33,47,680,['n'],1,right,['1'],6,617,[-0.10858253],77,47,medium,minus,dotcolour,beta,,,20,18,V,R,
446,68,26,10,3,47,33,882,['n'],0,left,['0'],1,751,[-0.04321896],44,47,medium,minus,dotcolour,beta,,,20,18,V,R,
447,69,27,10,3,27,53,582,['n'],1,right,['1'],6,355,[-0.11433783],86,53,easy,minus,dotcolour,beta,,,20,18,V,R,
448,70,28,10,3,53,27,565,['c'],1,left,['1'],6,415,[0.09720052],76,53,easy,minus,dotcolour,beta,,,20,18,V,R,
449,71,29,10,3,36,44,798,['c'],0,right,['2'],5,496,[0.12576235],86,44,hard,minus,dotcolour,beta,,,20,18,V,R,
450,72,30,10,3,44,36,733,['n'],0,left,['8'],3,1064,[0.04339519],15,44,hard,minus,dotcolour,beta,,,20,18,V,R,
451,73,31,10,3,36,44,965,['n'],1,right,['3'],4,577,[-0.12366174],83,44,hard,minus,dotcolour,beta,,,20,18,V,R,
452,74,32,10,3,44,36,615,['c'],1,left,['3'],4,450,[0.08897813],71,44,hard,minus,dotcolour,beta,,,20,18,V,R,
453,75,33,10,3,44,36,732,['c'],1,left,['2'],5,596,[-0.05587476],7,44,hard,minus,dotcolour,beta,,,20,18,V,R,
454,76,34,10,3,33,47,598,['n'],1,right,['3'],4,470,[-0.22266015],99,47,medium,minus,dotcolour,beta,,,20,18,V,R,
455,77,35,10,3,53,27,549,['c'],1,left,['3'],4,510,[0.15291196],92,53,easy,minus,dotcolour,beta,,,20,18,V,R,
456,78,36,10,3,33,47,697,['c'],0,right,['3'],4,791,[-0.04197055],12,47,medium,minus,dotcolour,beta,,,20,18,V,R,
457,79,37,10,3,53,27,649,['c'],1,left,['3'],4,574,[0.01643008],28,53,easy,minus,dotcolour,beta,,,20,18,V,R,
458,80,38,10,3,53,27,616,['n'],0,left,['9'],2,1008,[0.01034848],23,53,easy,minus,dotcolour,beta,,,20,18,V,R,
459,81,39,10,3,47,33,665,['c'],1,left,['3'],4,927,[0.21305464],95,47,medium,minus,dotcolour,beta,,,20,18,V,R,
460,82,40,10,3,36,44,1065,['c'],0,right,['9'],2,912,[0.04857199],47,44,hard,minus,dotcolour,beta,,,20,18,V,R,
461,83,41,10,3,36,44,1031,['n'],1,right,['3'],4,547,[-0.10910718],79,44,hard,minus,dotcolour,beta,,,20,18,V,R,
462,84,0,11,3,33,47,816,['n'],1,right,['3'],4,490,[-0.23969609],99,47,medium,minus,dotcolour,beta,,,20,18,V,R,
463,85,1,11,3,53,27,698,['c'],1,left,['3'],4,436,[0.02251313],29,53,easy,minus,dotcolour,beta,,,20,18,V,R,
464,86,2,11,3,53,27,597,['c'],1,left,['3'],4,468,[0.17306364],96,53,easy,minus,dotcolour,beta,,,20,18,V,R,
465,87,3,11,3,47,33,732,['c'],1,left,['3'],4,486,[0.14268303],90,47,medium,minus,dotcolour,beta,,,20,18,V,R,
466,88,4,11,3,44,36,581,['n'],0,left,['3'],4,469,[-0.07356904],62,44,hard,minus,dotcolour,beta,,,20,18,V,R,
467,89,5,11,3,36,44,599,['n'],1,right,['3'],4,364,[-0.17756488],97,44,hard,minus,dotcolour,beta,,,20,18,V,R,
468,90,6,11,3,36,44,516,['n'],1,right,['3'],4,410,[-0.01097627],22,44,hard,minus,dotcolour,beta,,,20,18,V,R,
469,91,7,11,3,27,53,515,['n'],1,right,['3'],4,446,[-0.14991741],93,53,easy,minus,dotcolour,beta,,,20,18,V,R,
470,92,8,11,3,44,36,598,['c'],1,left,['3'],4,390,[0.12330067],88,44,hard,minus,dotcolour,beta,,,20,18,V,R,
471,93,9,11,3,47,33,531,['n'],0,left,['0'],1,611,[0.01159187],18,47,medium,minus,dotcolour,beta,,,20,18,V,R,
472,94,10,11,3,33,47,599,['c'],0,right,['9'],2,940,[-0.077185],8,47,medium,minus,dotcolour,beta,,,20,18,V,R,
473,95,11,11,3,33,47,547,['n'],1,right,['2'],5,521,[-0.19287969],97,47,medium,minus,dotcolour,beta,,,20,18,V,R,
474,96,12,11,3,33,47,465,['n'],1,right,['2'],5,811,[-0.21057294],96,47,medium,minus,dotcolour,beta,,,20,18,V,R,
475,97,13,11,3,36,44,617,['n'],1,right,['2'],5,483,[0.01032055],15,44,hard,minus,dotcolour,beta,,,20,18,V,R,
476,98,14,11,3,27,53,515,['n'],1,right,['3'],4,517,[-0.17698371],95,53,easy,minus,dotcolour,beta,,,20,18,V,R,
477,99,15,11,3,44,36,598,['n'],0,left,['2'],5,554,[-0.0330274],37,44,hard,minus,dotcolour,beta,,,20,18,V,R,
478,100,16,11,3,36,44,547,['c'],0,right,['3'],4,1343,[-0.29116238],0,44,hard,minus,dotcolour,beta,,,20,18,V,R,
479,101,17,11,3,44,36,599,['n'],0,left,['3'],4,403,[-0.11993623],86,44,hard,minus,dotcolour,beta,,,20,18,V,R,
480,102,18,11,3,27,53,614,['n'],1,right,['2'],5,548,[-0.05820841],52,53,easy,minus,dotcolour,beta,,,20,18,V,R,
481,103,19,11,3,47,33,649,['c'],1,left,['3'],4,469,[0.09103917],72,47,medium,minus,dotcolour,beta,,,20,18,V,R,
482,104,20,11,3,53,27,566,['n'],0,left,['9'],2,566,[-0.01736223],29,53,easy,minus,dotcolour,beta,,,20,18,V,R,
483,105,21,11,3,44,36,599,['c'],1,left,['2'],5,536,[0.08814604],69,44,hard,minus,dotcolour,beta,,,20,18,V,R,
484,106,22,11,3,27,53,782,['n'],1,right,['3'],4,429,[-0.16140754],95,53,easy,minus,dotcolour,beta,,,20,18,V,R,
485,107,23,11,3,44,36,733,['c'],1,left,['3'],4,536,[0.07881537],64,44,hard,minus,dotcolour,beta,,,20,18,V,R,
486,108,24,11,3,47,33,582,['c'],1,left,['2'],5,460,[0.18342216],97,47,medium,minus,dotcolour,beta,,,20,18,V,R,
487,109,25,11,3,33,47,582,['n'],1,right,['3'],4,540,[-0.08319833],66,47,medium,minus,dotcolour,beta,,,20,18,V,R,
488,110,26,11,3,36,44,849,['c'],0,right,['3'],4,686,[-0.01790837],17,44,hard,minus,dotcolour,beta,,,20,18,V,R,
489,111,27,11,3,44,36,715,['c'],1,left,['2'],5,928,[0.02666283],37,44,hard,minus,dotcolour,beta,,,20,18,V,R,
490,112,28,11,3,47,33,766,['n'],0,left,['3'],4,1110,[-0.05809427],51,47,medium,minus,dotcolour,beta,,,20,18,V,R,
491,113,29,11,3,53,27,1182,['c'],1,left,['3'],4,627,[0.17774918],94,53,easy,minus,dotcolour,beta,,,20,18,V,R,
492,114,30,11,3,27,53,631,['n'],1,right,['3'],4,394,[-0.09704273],77,53,easy,minus,dotcolour,beta,,,20,18,V,R,
493,115,31,11,3,53,27,831,['c'],1,left,['2'],5,619,[0.14000366],87,53,easy,minus,dotcolour,beta,,,20,18,V,R,
494,116,32,11,3,36,44,799,['c'],0,right,['3'],4,723,[-0.0303988],14,44,hard,minus,dotcolour,beta,,,20,18,V,R,
495,117,33,11,3,47,33,882,['c'],1,left,['2'],5,629,[-0.02854292],13,47,medium,minus,dotcolour,beta,,,20,18,V,R,
496,118,34,11,3,36,44,699,['n'],1,right,['3'],4,617,[-0.076862],62,44,hard,minus,dotcolour,beta,,,20,18,V,R,
497,119,35,11,3,27,53,448,['n'],1,right,['3'],4,640,[-0.33576441],100,53,easy,minus,dotcolour,beta,,,20,18,V,R,
498,120,36,11,3,47,33,565,['c'],1,left,['3'],4,553,[0.12303865],84,47,medium,minus,dotcolour,beta,,,20,18,V,R,
499,121,37,11,3,53,27,531,['c'],1,left,['2'],5,535,[0.12512222],85,53,easy,minus,dotcolour,beta,,,20,18,V,R,
500,122,38,11,3,53,27,582,['c'],1,left,['2'],5,565,[0.08733773],68,53,easy,minus,dotcolour,beta,,,20,18,V,R,
501,123,39,11,3,33,47,700,['n'],1,right,['2'],5,411,[-0.05167223],47,47,medium,minus,dotcolour,beta,,,20,18,V,R,
502,124,40,11,3,33,47,965,['n'],1,right,['3'],4,429,[-0.14831795],93,47,medium,minus,dotcolour,beta,,,20,18,V,R,
503,125,41,11,3,27,53,682,['n'],1,right,['2'],5,811,[-0.28654256],99,53,easy,minus,dotcolour,beta,,,20,18,V,R,
504,0,0,12,4,44,36,699,['c'],1,left,['2'],5,377,[0.06056831],97,44,hard,plus,dotcolour,beta,,,20,18,V,R,
505,1,1,12,4,36,44,565,['n'],1,right,['2'],5,420,[-0.06139336],96,44,hard,plus,dotcolour,beta,,,20,18,V,R,
506,2,2,12,4,33,47,549,['n'],1,right,['3'],4,407,[-0.1412648],100,47,medium,plus,dotcolour,beta,,,20,18,V,R,
507,3,3,12,4,36,44,698,['n'],1,right,['3'],4,380,[-0.10936588],99,44,hard,plus,dotcolour,beta,,,20,18,V,R,
508,4,4,12,4,27,53,550,['n'],1,right,['2'],5,352,[-0.17298895],100,53,easy,plus,dotcolour,beta,,,20,18,V,R,
509,5,5,12,4,27,53,530,['n'],1,right,['2'],5,358,[-0.23559701],100,53,easy,plus,dotcolour,beta,,,20,18,V,R,
510,6,6,12,4,53,27,532,['c'],1,left,['2'],5,380,[0.10798918],99,53,easy,plus,dotcolour,beta,,,20,18,V,R,
511,7,7,12,4,36,44,532,['n'],1,right,['3'],4,449,[-0.1866011],100,44,hard,plus,dotcolour,beta,,,20,18,V,R,
512,8,8,12,4,44,36,415,['n'],0,left,['3'],4,512,[-0.09238126],98,44,hard,plus,dotcolour,beta,,,20,18,V,R,
513,9,9,12,4,47,33,516,['n'],0,left,['2'],5,488,[-0.03788786],92,47,medium,plus,dotcolour,beta,,,20,18,V,R,
514,10,10,12,4,47,33,683,['c'],1,left,['2'],5,411,[0.17882768],100,47,medium,plus,dotcolour,beta,,,20,18,V,R,
515,11,11,12,4,44,36,448,['n'],0,left,['9'],2,978,[0.00339254],72,44,hard,plus,dotcolour,beta,,,20,18,V,R,
516,12,12,12,4,27,53,515,['n'],1,right,['1'],6,680,[-0.22688231],100,53,easy,plus,dotcolour,beta,,,20,18,V,R,
517,13,13,12,4,36,44,665,['n'],1,right,['3'],4,460,[-0.11041552],99,44,hard,plus,dotcolour,beta,,,20,18,V,R,
518,14,14,12,4,44,36,498,['n'],0,left,['3'],4,527,[0.06759771],43,44,hard,plus,dotcolour,beta,,,20,18,V,R,
519,15,15,12,4,36,44,532,['n'],1,right,['2'],5,518,[-0.05957427],95,44,hard,plus,dotcolour,beta,,,20,18,V,R,
520,16,16,12,4,36,44,516,['n'],1,right,['3'],4,470,[-0.15491158],100,44,hard,plus,dotcolour,beta,,,20,18,V,R,
521,17,17,12,4,33,47,414,['n'],1,right,['1'],6,556,[-0.1501789],99,47,medium,plus,dotcolour,beta,,,20,18,V,R,
522,18,18,12,4,27,53,450,['n'],1,right,['3'],4,445,[-0.28659908],100,53,easy,plus,dotcolour,beta,,,20,18,V,R,
523,19,19,12,4,27,53,532,['n'],1,right,['2'],5,383,[0.00201153],83,53,easy,plus,dotcolour,beta,,,20,18,V,R,
524,20,20,12,4,47,33,649,['c'],1,left,['2'],5,847,[0.17564344],99,47,medium,plus,dotcolour,beta,,,20,18,V,R,
525,21,21,12,4,53,27,631,['c'],1,left,['3'],4,470,[0.19023264],100,53,easy,plus,dotcolour,beta,,,20,18,V,R,
526,22,22,12,4,44,36,882,['n'],0,left,['3'],4,449,[-0.03004523],91,44,hard,plus,dotcolour,beta,,,20,18,V,R,
527,23,23,12,4,27,53,599,['n'],1,right,['2'],5,345,[-0.01631743],90,53,easy,plus,dotcolour,beta,,,20,18,V,R,
528,24,24,12,4,36,44,615,['n'],1,right,['3'],4,460,[-0.13028768],99,44,hard,plus,dotcolour,beta,,,20,18,V,R,
529,25,25,12,4,47,33,664,['c'],1,left,['2'],5,552,[0.20873711],100,47,medium,plus,dotcolour,beta,,,20,18,V,R,
530,26,26,12,4,53,27,782,['c'],1,left,['2'],5,597,[0.20027604],100,53,easy,plus,dotcolour,beta,,,20,18,V,R,
531,27,27,12,4,33,47,582,['n'],1,right,['3'],4,798,[-0.25630155],100,47,medium,plus,dotcolour,beta,,,20,18,V,R,
532,28,28,12,4,33,47,547,['n'],1,right,['3'],4,714,[-0.08848683],96,47,medium,plus,dotcolour,beta,,,20,18,V,R,
533,29,29,12,4,47,33,516,['n'],0,left,['9'],2,754,[-0.11444046],97,47,medium,plus,dotcolour,beta,,,20,18,V,R,
534,30,30,12,4,33,47,965,['n'],1,right,['2'],5,495,[-0.09506954],98,47,medium,plus,dotcolour,beta,,,20,18,V,R,
535,31,31,12,4,53,27,665,['c'],1,left,['2'],5,594,[0.0795392],96,53,easy,plus,dotcolour,beta,,,20,18,V,R,
536,32,32,12,4,27,53,699,['n'],1,right,['3'],4,471,[-0.11324987],99,53,easy,plus,dotcolour,beta,,,20,18,V,R,
537,33,33,12,4,33,47,615,['n'],1,right,['3'],4,678,[-0.1083023],97,47,medium,plus,dotcolour,beta,,,20,18,V,R,
538,34,34,12,4,33,47,698,['n'],1,right,['3'],4,552,[-0.08221996],97,47,medium,plus,dotcolour,beta,,,20,18,V,R,
539,35,35,12,4,53,27,499,['n'],0,left,['2'],5,520,[0.08508088],32,53,easy,plus,dotcolour,beta,,,20,18,V,R,
540,36,36,12,4,53,27,649,['c'],1,left,['2'],5,427,[0.16673959],100,53,easy,plus,dotcolour,beta,,,20,18,V,R,
541,37,37,12,4,47,33,482,['n'],0,left,['8'],3,1048,[0.1554927],15,47,medium,plus,dotcolour,beta,,,20,18,V,R,
542,38,38,12,4,44,36,515,['n'],0,left,['9'],2,674,[-0.0497992],91,44,hard,plus,dotcolour,beta,,,20,18,V,R,
543,39,39,12,4,53,27,598,['c'],1,left,['2'],5,410,[0.09213046],98,53,easy,plus,dotcolour,beta,,,20,18,V,R,
544,40,40,12,4,44,36,498,['n'],0,left,['0'],1,886,[0.03895839],58,44,hard,plus,dotcolour,beta,,,20,18,V,R,
545,41,41,12,4,47,33,632,['c'],1,left,['2'],5,410,[0.1054915],99,47,medium,plus,dotcolour,beta,,,20,18,V,R,
546,42,0,13,4,53,27,683,['c'],1,left,['2'],5,373,[0.15852834],100,53,easy,plus,dotcolour,beta,,,20,18,V,R,
547,43,1,13,4,33,47,548,['n'],1,right,['2'],5,345,[-0.1691314],100,47,medium,plus,dotcolour,beta,,,20,18,V,R,
548,44,2,13,4,27,53,616,['n'],1,right,['2'],5,404,[-0.07101795],97,53,easy,plus,dotcolour,beta,,,20,18,V,R,
549,45,3,13,4,47,33,515,['c'],1,left,['2'],5,440,[-0.00806401],78,47,medium,plus,dotcolour,beta,,,20,18,V,R,
550,46,4,13,4,47,33,516,['n'],0,left,['0'],1,603,[0.06680057],44,47,medium,plus,dotcolour,beta,,,20,18,V,R,
551,47,5,13,4,27,53,432,['c'],0,right,['9'],2,580,[0.02410545],87,53,easy,plus,dotcolour,beta,,,20,18,V,R,
552,48,6,13,4,53,27,531,['c'],1,left,['2'],5,1993,[0.19908572],96,53,easy,plus,dotcolour,beta,,,20,18,V,R,
553,49,7,13,4,47,33,565,['c'],1,left,['2'],5,563,[0.17698701],100,47,medium,plus,dotcolour,beta,,,20,18,V,R,
554,50,8,13,4,44,36,499,['n'],0,left,['0'],1,554,[0.00537886],77,44,hard,plus,dotcolour,beta,,,20,18,V,R,
555,51,9,13,4,47,33,682,['c'],1,left,['2'],5,547,[0.13033082],99,47,medium,plus,dotcolour,beta,,,20,18,V,R,
556,52,10,13,4,53,27,649,['c'],1,left,['3'],4,564,[0.13636287],99,53,easy,plus,dotcolour,beta,,,20,18,V,R,
557,53,11,13,4,36,44,965,['c'],0,right,['2'],5,737,[0.09007919],95,44,hard,plus,dotcolour,beta,,,20,18,V,R,
558,54,12,13,4,44,36,598,['n'],0,left,['8'],3,701,[-0.13973355],99,44,hard,plus,dotcolour,beta,,,20,18,V,R,
559,55,13,13,4,27,53,632,['c'],0,right,['8'],3,553,[0.04078267],91,53,easy,plus,dotcolour,beta,,,20,18,V,R,
560,56,14,13,4,33,47,681,['n'],1,right,['2'],5,537,[0.00563362],77,47,medium,plus,dotcolour,beta,,,20,18,V,R,
561,57,15,13,4,33,47,731,['c'],0,right,['9'],2,807,[-0.01688195],68,47,medium,plus,dotcolour,beta,,,20,18,V,R,
562,58,16,13,4,47,33,832,['c'],1,left,['3'],4,519,[0.17174526],100,47,medium,plus,dotcolour,beta,,,20,18,V,R,
563,59,17,13,4,53,27,666,['c'],1,left,['2'],5,2162,[0.40856553],100,53,easy,plus,dotcolour,beta,,,20,18,V,R,
564,60,18,13,4,44,36,617,['c'],1,left,['2'],5,379,[0.15291943],100,44,hard,plus,dotcolour,beta,,,20,18,V,R,
565,61,19,13,4,53,27,566,['c'],1,left,['2'],5,351,[0.12603284],100,53,easy,plus,dotcolour,beta,,,20,18,V,R,
566,62,20,13,4,53,27,832,['c'],1,left,['2'],5,618,[0.18337814],100,53,easy,plus,dotcolour,beta,,,20,18,V,R,
567,63,21,13,4,36,44,699,['c'],0,right,['2'],5,806,[-0.0518134],52,44,hard,plus,dotcolour,beta,,,20,18,V,R,
568,64,22,13,4,33,47,1298,['c'],0,right,['2'],5,595,[-0.04698391],55,47,medium,plus,dotcolour,beta,,,20,18,V,R,
569,65,23,13,4,47,33,749,['c'],1,left,['2'],5,1823,[0.27519694],99,47,medium,plus,dotcolour,beta,,,20,18,V,R,
570,66,24,13,4,36,44,733,['c'],0,right,['2'],5,610,[0.0641858],94,44,hard,plus,dotcolour,beta,,,20,18,V,R,
571,67,25,13,4,47,33,683,['c'],1,left,['2'],5,759,[0.21340264],100,47,medium,plus,dotcolour,beta,,,20,18,V,R,
572,68,26,13,4,44,36,683,['n'],0,left,['3'],4,551,[-0.00232053],80,44,hard,plus,dotcolour,beta,,,20,18,V,R,
573,69,27,13,4,36,44,714,['n'],1,right,['3'],4,478,[-0.0616036],95,44,hard,plus,dotcolour,beta,,,20,18,V,R,
574,70,28,13,4,27,53,899,['n'],1,right,['3'],4,448,[-0.11579698],99,53,easy,plus,dotcolour,beta,,,20,18,V,R,
575,71,29,13,4,27,53,664,['c'],0,right,['8'],3,813,[0.00418959],77,53,easy,plus,dotcolour,beta,,,20,18,V,R,
576,72,30,13,4,33,47,916,['c'],0,right,['3'],4,617,[-0.04426827],56,47,medium,plus,dotcolour,beta,,,20,18,V,R,
577,73,31,13,4,33,47,633,['n'],1,right,['3'],4,696,[-0.21120343],100,47,medium,plus,dotcolour,beta,,,20,18,V,R,
578,74,32,13,4,36,44,682,['n'],1,right,['3'],4,483,[-0.04651265],93,44,hard,plus,dotcolour,beta,,,20,18,V,R,
579,75,33,13,4,33,47,550,['n'],1,right,['3'],4,434,[-0.23007452],100,47,medium,plus,dotcolour,beta,,,20,18,V,R,
580,76,34,13,4,44,36,1183,['c'],1,left,['2'],5,403,[0.14795961],100,44,hard,plus,dotcolour,beta,,,20,18,V,R,
581,77,35,13,4,53,27,666,['c'],1,left,['1'],6,353,[0.08215666],98,53,easy,plus,dotcolour,beta,,,20,18,V,R,
582,78,36,13,4,27,53,666,['n'],1,right,['1'],6,315,[-0.18632795],100,53,easy,plus,dotcolour,beta,,,20,18,V,R,
583,79,37,13,4,44,36,549,['c'],1,left,['8'],3,514,[0.11946468],99,44,hard,plus,dotcolour,beta,,,20,18,V,R,
584,80,38,13,4,36,44,615,['n'],1,right,['8'],3,614,[-0.16401744],99,44,hard,plus,dotcolour,beta,,,20,18,V,R,
585,81,39,13,4,27,53,714,['n'],1,right,['3'],4,450,[-0.21803921],100,53,easy,plus,dotcolour,beta,,,20,18,V,R,
586,82,40,13,4,36,44,433,['c'],0,right,['8'],3,921,[-0.01800489],67,44,hard,plus,dotcolour,beta,,,20,18,V,R,
587,83,41,13,4,44,36,533,['c'],1,left,['3'],4,496,[0.0375485],92,44,hard,plus,dotcolour,beta,,,20,18,V,R,
588,84,0,14,4,44,36,700,['n'],0,left,['9'],2,711,[-0.19437789],100,44,hard,plus,dotcolour,beta,,,20,18,V,R,
589,85,1,14,4,53,27,665,['n'],0,left,['9'],2,1185,[0.01292231],67,53,easy,plus,dotcolour,beta,,,20,18,V,R,
590,86,2,14,4,33,47,582,['n'],1,right,['3'],4,539,[-0.22427326],100,47,medium,plus,dotcolour,beta,,,20,18,V,R,
591,87,3,14,4,36,44,798,['c'],0,right,['3'],4,607,[0.22908491],100,44,hard,plus,dotcolour,beta,,,20,18,V,R,
592,88,4,14,4,36,44,749,['n'],1,right,['3'],4,402,[-0.08228125],98,44,hard,plus,dotcolour,beta,,,20,18,V,R,
593,89,5,14,4,27,53,716,['n'],1,right,['2'],5,431,[-0.19972725],100,53,easy,plus,dotcolour,beta,,,20,18,V,R,
594,90,6,14,4,47,33,530,['c'],1,left,['2'],5,466,[0.1302523],99,47,medium,plus,dotcolour,beta,,,20,18,V,R,
595,91,7,14,4,36,44,715,['n'],1,right,['2'],5,716,[-0.00859611],80,44,hard,plus,dotcolour,beta,,,20,18,V,R,
596,92,8,14,4,33,47,582,['n'],1,right,['2'],5,417,[-0.07972564],98,47,medium,plus,dotcolour,beta,,,20,18,V,R,
597,93,9,14,4,27,53,600,['n'],1,right,['2'],5,403,[-0.18079847],100,53,easy,plus,dotcolour,beta,,,20,18,V,R,
598,94,10,14,4,36,44,616,['n'],1,right,['8'],3,539,[-0.09523088],98,44,hard,plus,dotcolour,beta,,,20,18,V,R,
599,95,11,14,4,53,27,866,['c'],1,left,['2'],5,620,[0.22865162],100,53,easy,plus,dotcolour,beta,,,20,18,V,R,
600,96,12,14,4,44,36,734,['c'],1,left,['2'],5,639,[0.07523369],95,44,hard,plus,dotcolour,beta,,,20,18,V,R,
601,97,13,14,4,47,33,748,['c'],1,left,['2'],5,537,[0.06024241],95,47,medium,plus,dotcolour,beta,,,20,18,V,R,
602,98,14,14,4,33,47,916,['c'],0,right,['2'],5,968,[-0.0744037],41,47,medium,plus,dotcolour,beta,,,20,18,V,R,
603,99,15,14,4,36,44,1115,['n'],1,right,['2'],5,510,[0.02277237],70,44,hard,plus,dotcolour,beta,,,20,18,V,R,
604,100,16,14,4,44,36,833,['c'],1,left,['2'],5,514,[0.26650207],100,44,hard,plus,dotcolour,beta,,,20,18,V,R,
605,101,17,14,4,53,27,666,['c'],1,left,['1'],6,484,[0.14734922],99,53,easy,plus,dotcolour,beta,,,20,18,V,R,
606,102,18,14,4,36,44,765,['n'],1,right,['1'],6,500,[-0.05463195],94,44,hard,plus,dotcolour,beta,,,20,18,V,R,
607,103,19,14,4,27,53,915,['n'],1,right,['2'],5,653,[-0.07005128],94,53,easy,plus,dotcolour,beta,,,20,18,V,R,
608,104,20,14,4,36,44,699,['c'],0,right,['8'],3,1009,[0.00704321],75,44,hard,plus,dotcolour,beta,,,20,18,V,R,
609,105,21,14,4,44,36,899,['c'],1,left,['3'],4,1150,[0.1726798],98,44,hard,plus,dotcolour,beta,,,20,18,V,R,
610,106,22,14,4,33,47,680,['n'],1,right,['2'],5,830,[-0.24476525],100,47,medium,plus,dotcolour,beta,,,20,18,V,R,
611,107,23,14,4,33,47,716,['n'],1,right,['2'],5,441,[-0.121123],99,47,medium,plus,dotcolour,beta,,,20,18,V,R,
612,108,24,14,4,44,36,983,['c'],1,left,['3'],4,610,[0.24293984],100,44,hard,plus,dotcolour,beta,,,20,18,V,R,
613,109,25,14,4,47,33,733,['c'],1,left,['1'],6,510,[-0.01531292],73,47,medium,plus,dotcolour,beta,,,20,18,V,R,
614,110,26,14,4,53,27,1065,['c'],1,left,['2'],5,592,[0.1089387],98,53,easy,plus,dotcolour,beta,,,20,18,V,R,
615,111,27,14,4,27,53,549,['n'],1,right,['2'],5,475,[-0.08359093],97,53,easy,plus,dotcolour,beta,,,20,18,V,R,
616,112,28,14,4,47,33,1366,['c'],1,left,['2'],5,715,[0.33072821],100,47,medium,plus,dotcolour,beta,,,20,18,V,R,
617,113,29,14,4,44,36,565,['c'],1,left,['2'],5,466,[0.1003202],98,44,hard,plus,dotcolour,beta,,,20,18,V,R,
618,114,30,14,4,47,33,716,['n'],0,left,['2'],5,395,[-0.07558237],98,47,medium,plus,dotcolour,beta,,,20,18,V,R,
619,115,31,14,4,47,33,666,['n'],0,left,['9'],2,1410,[-0.03223296],79,47,medium,plus,dotcolour,beta,,,20,18,V,R,
620,116,32,14,4,53,27,533,['c'],1,left,['1'],6,614,[0.08916332],97,53,easy,plus,dotcolour,beta,,,20,18,V,R,
621,117,33,14,4,47,33,816,['c'],1,left,['3'],4,638,[0.21213328],100,47,medium,plus,dotcolour,beta,,,20,18,V,R,
622,118,34,14,4,33,47,899,['n'],1,right,['3'],4,547,[-0.15699837],99,47,medium,plus,dotcolour,beta,,,20,18,V,R,
623,119,35,14,4,44,36,665,['n'],0,left,['3'],4,459,[-0.03293321],91,44,hard,plus,dotcolour,beta,,,20,18,V,R,
624,120,36,14,4,27,53,531,['n'],1,right,['2'],5,429,[-0.04335933],94,53,easy,plus,dotcolour,beta,,,20,18,V,R,
625,121,37,14,4,27,53,549,['n'],1,right,['2'],5,407,[-0.04717308],95,53,easy,plus,dotcolour,beta,,,20,18,V,R,
626,122,38,14,4,53,27,917,['c'],1,left,['1'],6,355,[0.12121171],100,53,easy,plus,dotcolour,beta,,,20,18,V,R,
627,123,39,14,4,33,47,666,['n'],1,right,['1'],6,532,[-0.02983777],89,47,medium,plus,dotcolour,beta,,,20,18,V,R,
628,124,40,14,4,27,53,533,['n'],1,right,['2'],5,795,[-0.12717229],98,53,easy,plus,dotcolour,beta,,,20,18,V,R,
629,125,41,14,4,53,27,698,['c'],1,left,['2'],5,409,[0.06141249],96,53,easy,plus,dotcolour,beta,,,20,18,V,R,
630,0,0,15,5,47,33,733,['c'],1,left,['3'],4,458,[0.12327011],86,47,medium,minus,dotcolour,beta,,,20,18,V,R,
631,1,1,15,5,44,36,548,['n'],0,left,['3'],4,355,[-0.07607839],65,44,hard,minus,dotcolour,beta,,,20,18,V,R,
632,2,2,15,5,44,36,650,['c'],1,left,['2'],5,796,[0.17485344],92,44,hard,minus,dotcolour,beta,,,20,18,V,R,
633,3,3,15,5,27,53,616,['n'],1,right,['2'],5,380,[-0.16945212],97,53,easy,minus,dotcolour,beta,,,20,18,V,R,
634,4,4,15,5,33,47,598,['n'],1,right,['1'],6,359,[-0.07329405],63,47,medium,minus,dotcolour,beta,,,20,18,V,R,
635,5,5,15,5,36,44,632,['n'],1,right,['2'],5,393,[-0.12163663],87,44,hard,minus,dotcolour,beta,,,20,18,V,R,
636,6,6,15,5,27,53,499,['c'],0,right,['0'],1,750,[-0.17654918],1,53,easy,minus,dotcolour,beta,,,20,18,V,R,
637,7,7,15,5,36,44,715,['n'],1,right,['8'],3,669,[-0.07921461],63,44,hard,minus,dotcolour,beta,,,20,18,V,R,
638,8,8,15,5,53,27,916,['c'],1,left,['2'],5,512,[0.27632791],100,53,easy,minus,dotcolour,beta,,,20,18,V,R,
639,9,9,15,5,27,53,932,['n'],1,right,['2'],5,487,[-0.12670679],86,53,easy,minus,dotcolour,beta,,,20,18,V,R,
640,10,10,15,5,44,36,664,['n'],0,left,['9'],2,587,[-0.13154052],86,44,hard,minus,dotcolour,beta,,,20,18,V,R,
641,11,11,15,5,47,33,717,['c'],1,left,['2'],5,512,[0.12316868],85,47,medium,minus,dotcolour,beta,,,20,18,V,R,
642,12,12,15,5,47,33,632,['c'],1,left,['2'],5,483,[0.23408379],99,47,medium,minus,dotcolour,beta,,,20,18,V,R,
643,13,13,15,5,44,36,467,['n'],0,left,['8'],3,599,[-0.07621994],62,44,hard,minus,dotcolour,beta,,,20,18,V,R,
644,14,14,15,5,44,36,566,['c'],1,left,['2'],5,393,[0.1375797],91,44,hard,minus,dotcolour,beta,,,20,18,V,R,
645,15,15,15,5,33,47,849,['n'],1,right,['2'],5,329,[-0.13370558],92,47,medium,minus,dotcolour,beta,,,20,18,V,R,
646,16,16,15,5,47,33,1067,['n'],0,left,['2'],5,403,[0.00297458],16,47,medium,minus,dotcolour,beta,,,20,18,V,R,
647,17,17,15,5,27,53,598,['n'],1,right,['2'],5,451,[-0.11339436],82,53,easy,minus,dotcolour,beta,,,20,18,V,R,
648,18,18,15,5,27,53,515,['n'],1,right,['2'],5,550,[-0.09856448],74,53,easy,minus,dotcolour,beta,,,20,18,V,R,
649,19,19,15,5,44,36,632,['c'],1,left,['2'],5,409,[0.042512],41,44,hard,minus,dotcolour,beta,,,20,18,V,R,
650,20,20,15,5,33,47,730,['n'],1,right,['2'],5,436,[-0.2005274],98,47,medium,minus,dotcolour,beta,,,20,18,V,R,
651,21,21,15,5,53,27,1449,['c'],1,left,['2'],5,739,[0.18603213],94,53,easy,minus,dotcolour,beta,,,20,18,V,R,
652,22,22,15,5,33,47,598,['n'],1,right,['2'],5,359,[-0.0410443],39,47,medium,minus,dotcolour,beta,,,20,18,V,R,
653,23,23,15,5,36,44,865,['n'],1,right,['2'],5,543,[-0.00497412],23,44,hard,minus,dotcolour,beta,,,20,18,V,R,
654,24,24,15,5,47,33,782,['n'],0,left,['3'],4,835,[0.08738837],6,47,medium,minus,dotcolour,beta,,,20,18,V,R,
655,25,25,15,5,47,33,700,['c'],1,left,['3'],4,552,[0.24298857],99,47,medium,minus,dotcolour,beta,,,20,18,V,R,
656,26,26,15,5,36,44,850,['n'],1,right,['2'],5,538,[-0.20866029],98,44,hard,minus,dotcolour,beta,,,20,18,V,R,
657,27,27,15,5,36,44,683,['n'],1,right,['2'],5,410,[-0.14471048],92,44,hard,minus,dotcolour,beta,,,20,18,V,R,
658,28,28,15,5,53,27,599,['c'],1,left,['2'],5,403,[0.12049152],86,53,easy,minus,dotcolour,beta,,,20,18,V,R,
659,29,29,15,5,33,47,566,['c'],0,right,['2'],5,574,[-0.03561866],10,47,medium,minus,dotcolour,beta,,,20,18,V,R,
660,30,30,15,5,53,27,1131,['c'],1,left,['1'],6,539,[0.1747722],95,53,easy,minus,dotcolour,beta,,,20,18,V,R,
661,31,31,15,5,33,47,582,['n'],1,right,['1'],6,360,[-0.18733766],98,47,medium,minus,dotcolour,beta,,,20,18,V,R,
662,32,32,15,5,36,44,649,['n'],1,right,['3'],4,665,[-0.1207698],81,44,hard,minus,dotcolour,beta,,,20,18,V,R,
663,33,33,15,5,44,36,698,['n'],0,left,['3'],4,580,[-0.01862534],29,44,hard,minus,dotcolour,beta,,,20,18,V,R,
664,34,34,15,5,53,27,947,['c'],1,left,['2'],5,928,[0.2244211],96,53,easy,minus,dotcolour,beta,,,20,18,V,R,
665,35,35,15,5,27,53,481,['n'],1,right,['2'],5,402,[-0.1044482],80,53,easy,minus,dotcolour,beta,,,20,18,V,R,
666,36,36,15,5,36,44,597,['c'],0,right,['2'],5,450,[0.03394315],36,44,hard,minus,dotcolour,beta,,,20,18,V,R,
667,37,37,15,5,47,33,564,['c'],1,left,['2'],5,436,[0.17447306],96,47,medium,minus,dotcolour,beta,,,20,18,V,R,
668,38,38,15,5,33,47,599,['n'],1,right,['2'],5,355,[-0.16500963],96,47,medium,minus,dotcolour,beta,,,20,18,V,R,
669,39,39,15,5,53,27,663,['n'],0,left,['2'],5,571,[0.08934736],3,53,easy,minus,dotcolour,beta,,,20,18,V,R,
670,40,40,15,5,53,27,683,['c'],1,left,['1'],6,314,[0.20012112],99,53,easy,minus,dotcolour,beta,,,20,18,V,R,
671,41,41,15,5,27,53,582,['n'],1,right,['1'],6,408,[-0.21865335],99,53,easy,minus,dotcolour,beta,,,20,18,V,R,
672,42,0,16,5,53,27,666,['c'],1,left,['2'],5,444,[0.088625],71,53,easy,minus,dotcolour,beta,,,20,18,V,R,
673,43,1,16,5,33,47,567,['n'],1,right,['2'],5,301,[-0.24910988],100,47,medium,minus,dotcolour,beta,,,20,18,V,R,
674,44,2,16,5,44,36,432,['c'],1,left,['2'],5,298,[0.11468514],88,44,hard,minus,dotcolour,beta,,,20,18,V,R,
675,45,3,16,5,44,36,563,['n'],0,left,['1'],6,312,[-0.06501832],58,44,hard,minus,dotcolour,beta,,,20,18,V,R,
676,46,4,16,5,33,47,615,['n'],1,right,['1'],6,316,[-0.07759876],67,47,medium,minus,dotcolour,beta,,,20,18,V,R,
677,47,5,16,5,44,36,398,['c'],1,left,['2'],5,354,[0.10241761],80,44,hard,minus,dotcolour,beta,,,20,18,V,R,
678,48,6,16,5,27,53,448,['n'],1,right,['1'],6,531,[-0.17051182],94,53,easy,minus,dotcolour,beta,,,20,18,V,R,
679,49,7,16,5,33,47,482,['n'],1,right,['3'],4,403,[-0.17556282],97,47,medium,minus,dotcolour,beta,,,20,18,V,R,
680,50,8,16,5,44,36,483,['c'],1,left,['3'],4,338,[0.06663986],58,44,hard,minus,dotcolour,beta,,,20,18,V,R,
681,51,9,16,5,44,36,548,['n'],0,left,['3'],4,488,[-0.10112449],76,44,hard,minus,dotcolour,beta,,,20,18,V,R,
682,52,10,16,5,36,44,548,['n'],1,right,['2'],5,319,[-0.03291572],33,44,hard,minus,dotcolour,beta,,,20,18,V,R,
683,53,11,16,5,27,53,598,['c'],0,right,['0'],1,677,[0.12087538],81,53,easy,minus,dotcolour,beta,,,20,18,V,R,
684,54,12,16,5,36,44,449,['n'],1,right,['3'],4,521,[-0.12668069],85,44,hard,minus,dotcolour,beta,,,20,18,V,R,
685,55,13,16,5,27,53,517,['n'],1,right,['2'],5,313,[-0.10561774],83,53,easy,minus,dotcolour,beta,,,20,18,V,R,
686,56,14,16,5,36,44,616,['c'],0,right,['2'],5,750,[-0.05036637],10,44,hard,minus,dotcolour,beta,,,20,18,V,R,
687,57,15,16,5,27,53,648,['n'],1,right,['2'],5,352,[-0.05594055],50,53,easy,minus,dotcolour,beta,,,20,18,V,R,
688,58,16,16,5,47,33,631,['c'],1,left,['2'],5,378,[0.1635409],96,47,medium,minus,dotcolour,beta,,,20,18,V,R,
689,59,17,16,5,44,36,647,['c'],1,left,['9'],2,714,[0.12054672],80,44,hard,minus,dotcolour,beta,,,20,18,V,R,
690,60,18,16,5,27,53,515,['n'],1,right,['2'],5,443,[-0.04407029],42,53,easy,minus,dotcolour,beta,,,20,18,V,R,
691,61,19,16,5,33,47,565,['n'],1,right,['2'],5,339,[-0.09759455],79,47,medium,minus,dotcolour,beta,,,20,18,V,R,
692,62,20,16,5,47,33,550,['n'],0,left,['0'],1,873,[-0.16932553],90,47,medium,minus,dotcolour,beta,,,20,18,V,R,
693,63,21,16,5,47,33,666,['c'],1,left,['2'],5,357,[0.10391806],81,47,medium,minus,dotcolour,beta,,,20,18,V,R,
694,64,22,16,5,36,44,599,['c'],0,right,['9'],2,663,[0.15475284],90,44,hard,minus,dotcolour,beta,,,20,18,V,R,
695,65,23,16,5,33,47,699,['n'],1,right,['2'],5,682,[-0.21603372],97,47,medium,minus,dotcolour,beta,,,20,18,V,R,
696,66,24,16,5,53,27,600,['c'],1,left,['1'],6,353,[0.07605712],65,53,easy,minus,dotcolour,beta,,,20,18,V,R,
697,67,25,16,5,53,27,631,['c'],1,left,['2'],5,546,[0.11063706],79,53,easy,minus,dotcolour,beta,,,20,18,V,R,
698,68,26,16,5,33,47,532,['n'],1,right,['3'],4,528,[-0.19384273],97,47,medium,minus,dotcolour,beta,,,20,18,V,R,
699,69,27,16,5,36,44,617,['n'],1,right,['2'],5,692,[-0.23556754],98,44,hard,minus,dotcolour,beta,,,20,18,V,R,
700,70,28,16,5,53,27,730,['c'],1,left,['2'],5,316,[0.19930525],99,53,easy,minus,dotcolour,beta,,,20,18,V,R,
701,71,29,16,5,44,36,682,['c'],1,left,['1'],6,806,[0.11096749],75,44,hard,minus,dotcolour,beta,,,20,18,V,R,
702,72,30,16,5,47,33,1050,['c'],1,left,['2'],5,1013,[0.24821395],97,47,medium,minus,dotcolour,beta,,,20,18,V,R,
703,73,31,16,5,27,53,517,['n'],1,right,['2'],5,577,[-0.04736599],45,53,easy,minus,dotcolour,beta,,,20,18,V,R,
704,74,32,16,5,47,33,467,['n'],0,left,['2'],5,441,[0.02233806],11,47,medium,minus,dotcolour,beta,,,20,18,V,R,
705,75,33,16,5,53,27,633,['c'],1,left,['2'],5,399,[0.05584734],50,53,easy,minus,dotcolour,beta,,,20,18,V,R,
706,76,34,16,5,53,27,632,['c'],1,left,['2'],5,352,[0.09877288],79,53,easy,minus,dotcolour,beta,,,20,18,V,R,
707,77,35,16,5,47,33,449,['c'],1,left,['3'],4,1442,[0.10353892],67,47,medium,minus,dotcolour,beta,,,20,18,V,R,
708,78,36,16,5,47,33,765,['c'],1,left,['3'],4,363,[0.16838075],97,47,medium,minus,dotcolour,beta,,,20,18,V,R,
709,79,37,16,5,53,27,483,['c'],1,left,['2'],5,370,[0.13219934],91,53,easy,minus,dotcolour,beta,,,20,18,V,R,
710,80,38,16,5,33,47,550,['c'],0,right,['9'],2,688,[-0.23428872],0,47,medium,minus,dotcolour,beta,,,20,18,V,R,
711,81,39,16,5,36,44,533,['c'],0,right,['3'],4,919,[-0.03319305],16,44,hard,minus,dotcolour,beta,,,20,18,V,R,
712,82,40,16,5,36,44,547,['n'],1,right,['8'],3,349,[-0.06671575],58,44,hard,minus,dotcolour,beta,,,20,18,V,R,
713,83,41,16,5,27,53,466,['n'],1,right,['3'],4,334,[-0.18172441],98,53,easy,minus,dotcolour,beta,,,20,18,V,R,
714,84,0,17,5,27,53,834,['n'],1,right,['3'],4,339,[-0.15078915],95,53,easy,minus,dotcolour,beta,,,20,18,V,R,
715,85,1,17,5,44,36,633,['c'],1,left,['3'],4,285,[0.02507691],26,44,hard,minus,dotcolour,beta,,,20,18,V,R,
716,86,2,17,5,36,44,550,['n'],1,right,['3'],4,261,[-0.05403152],49,44,hard,minus,dotcolour,beta,,,20,18,V,R,
717,87,3,17,5,33,47,383,['n'],1,right,['2'],5,605,[-0.24939206],99,47,medium,minus,dotcolour,beta,,,20,18,V,R,
718,88,4,17,5,53,27,415,['c'],1,left,['2'],5,357,[0.08032373],68,53,easy,minus,dotcolour,beta,,,20,18,V,R,
719,89,5,17,5,33,47,383,['c'],0,right,['9'],2,665,[-0.07182645],6,47,medium,minus,dotcolour,beta,,,20,18,V,R,
720,90,6,17,5,36,44,650,['n'],1,right,['2'],5,366,[-0.0993942],79,44,hard,minus,dotcolour,beta,,,20,18,V,R,
721,91,7,17,5,47,33,633,['c'],1,left,['3'],4,304,[0.16164348],97,47,medium,minus,dotcolour,beta,,,20,18,V,R,
722,92,8,17,5,33,47,532,['c'],0,right,['8'],3,616,[0.08112953],64,47,medium,minus,dotcolour,beta,,,20,18,V,R,
723,93,9,17,5,27,53,615,['n'],1,right,['3'],4,272,[-0.1591409],97,53,easy,minus,dotcolour,beta,,,20,18,V,R,
724,94,10,17,5,44,36,599,['n'],0,left,['2'],5,374,[-0.02633337],30,44,hard,minus,dotcolour,beta,,,20,18,V,R,
725,95,11,17,5,53,27,532,['c'],1,left,['2'],5,291,[0.11191707],87,53,easy,minus,dotcolour,beta,,,20,18,V,R,
726,96,12,17,5,53,27,549,['c'],1,left,['2'],5,283,[0.16828214],98,53,easy,minus,dotcolour,beta,,,20,18,V,R,
727,97,13,17,5,44,36,449,['c'],1,left,['2'],5,487,[0.15344255],93,44,hard,minus,dotcolour,beta,,,20,18,V,R,
728,98,14,17,5,44,36,565,['n'],0,left,['8'],3,486,[-0.05629893],50,44,hard,minus,dotcolour,beta,,,20,18,V,R,
729,99,15,17,5,27,53,880,['n'],1,right,['3'],4,330,[-0.02172721],26,53,easy,minus,dotcolour,beta,,,20,18,V,R,
730,100,16,17,5,47,33,649,['c'],1,left,['2'],5,388,[0.07569578],64,47,medium,minus,dotcolour,beta,,,20,18,V,R,
731,101,17,17,5,47,33,681,['c'],1,left,['2'],5,363,[0.0435956],41,47,medium,minus,dotcolour,beta,,,20,18,V,R,
732,102,18,17,5,53,27,532,['c'],1,left,['1'],6,353,[0.02773993],30,53,easy,minus,dotcolour,beta,,,20,18,V,R,
733,103,19,17,5,33,47,550,['n'],1,right,['2'],5,333,[-0.10488366],82,47,medium,minus,dotcolour,beta,,,20,18,V,R,
734,104,20,17,5,27,53,531,['n'],1,right,['2'],5,324,[-0.07384068],64,53,easy,minus,dotcolour,beta,,,20,18,V,R,
735,105,21,17,5,53,27,697,['c'],1,left,['2'],5,317,[0.05440641],49,53,easy,minus,dotcolour,beta,,,20,18,V,R,
736,106,22,17,5,44,36,632,['n'],0,left,['2'],5,368,[-0.03611768],36,44,hard,minus,dotcolour,beta,,,20,18,V,R,
737,107,23,17,5,36,44,615,['c'],0,right,['2'],5,491,[-0.01140753],15,44,hard,minus,dotcolour,beta,,,20,18,V,R,
738,108,24,17,5,33,47,599,['c'],0,right,['2'],5,368,[-0.07217884],2,47,medium,minus,dotcolour,beta,,,20,18,V,R,
739,109,25,17,5,47,33,582,['c'],1,left,['2'],5,364,[0.10151261],80,47,medium,minus,dotcolour,beta,,,20,18,V,R,
740,110,26,17,5,36,44,498,['n'],1,right,['3'],4,547,[-0.07141877],60,44,hard,minus,dotcolour,beta,,,20,18,V,R,
741,111,27,17,5,27,53,700,['n'],1,right,['3'],4,347,[-0.10852144],83,53,easy,minus,dotcolour,beta,,,20,18,V,R,
742,112,28,17,5,47,33,583,['c'],1,left,['2'],5,335,[0.05872759],52,47,medium,minus,dotcolour,beta,,,20,18,V,R,
743,113,29,17,5,36,44,631,['n'],1,right,['2'],5,338,[-0.08880597],74,44,hard,minus,dotcolour,beta,,,20,18,V,R,
744,114,30,17,5,33,47,616,['c'],0,right,['3'],4,478,[0.07853097],65,47,medium,minus,dotcolour,beta,,,20,18,V,R,
745,115,31,17,5,36,44,515,['n'],1,right,['3'],4,351,[-0.09841496],79,44,hard,minus,dotcolour,beta,,,20,18,V,R,
746,116,32,17,5,47,33,430,['c'],1,left,['2'],5,362,[0.05251372],48,47,medium,minus,dotcolour,beta,,,20,18,V,R,
747,117,33,17,5,27,53,549,['c'],0,right,['9'],2,791,[0.10047286],71,53,easy,minus,dotcolour,beta,,,20,18,V,R,
748,118,34,17,5,44,36,716,['n'],0,left,['8'],3,652,[-0.15171469],90,44,hard,minus,dotcolour,beta,,,20,18,V,R,
749,119,35,17,5,44,36,531,['c'],1,left,['2'],5,415,[0.15847709],95,44,hard,minus,dotcolour,beta,,,20,18,V,R,
750,120,36,17,5,47,33,1015,['c'],1,left,['2'],5,399,[0.26441769],100,47,medium,minus,dotcolour,beta,,,20,18,V,R,
751,121,37,17,5,33,47,531,['c'],0,right,['0'],1,491,[0.00096133],20,47,medium,minus,dotcolour,beta,,,20,18,V,R,
752,122,38,17,5,36,44,665,['n'],1,right,['3'],4,494,[0.02154331],12,44,hard,minus,dotcolour,beta,,,20,18,V,R,
753,123,39,17,5,53,27,649,['c'],1,left,['3'],4,345,[0.02235892],27,53,easy,minus,dotcolour,beta,,,20,18,V,R,
754,124,40,17,5,27,53,567,['n'],1,right,['2'],5,302,[-0.16347669],97,53,easy,minus,dotcolour,beta,,,20,18,V,R,
755,125,41,17,5,53,27,632,['c'],1,left,['2'],5,595,[0.27167682],99,53,easy,minus,dotcolour,beta,,,20,18,V,R,
,,,,,,,,,,,,,,,,,,,,,1,"er waren ronden waarbij er negztieve feebdbaxk gegeven werd, en ronden met positieve feedback denk ik",20,18,V,R,
,,,,,,,,,,,,,,,,,,,,,2,['f'],20,18,V,R,
,,,,,,,,,,,,,,,,,,,,,3,['f'],20,18,V,R,
,,,,,,,,,,,,,,,,,,,,,5,[],20,18,V,R,
