trial,withinphasetrial,withinblocktrial,block,phase,dotsLeft,dotsRight,rt,resp,cor,cresp,conf_press,cj,RTconf,ev,fb,diff,difflevel,condition,task,manip,questionID,questionResp,sub,age,gender,handedness,
0,0,0,0,0,47,33,784,['c'],1,left,['2'],5,783,[0.26241829],94,47,medium,minus,dotcolour,alfa,,,125,18,M,R,
1,1,1,0,0,53,27,817,['c'],1,left,['1'],6,263,[0.20730624],97,53,easy,minus,dotcolour,alfa,,,125,18,M,R,
2,2,2,0,0,53,27,534,['c'],1,left,['1'],6,161,[0.09097079],88,53,easy,minus,dotcolour,alfa,,,125,18,M,R,
3,3,3,0,0,36,44,735,['n'],1,right,['1'],6,742,[-0.1479944],82,44,hard,minus,dotcolour,alfa,,,125,18,M,R,
4,4,4,0,0,47,33,667,['c'],1,left,['2'],5,263,[0.18611244],96,47,medium,minus,dotcolour,alfa,,,125,18,M,R,
5,5,5,0,0,36,44,551,['n'],1,right,['2'],5,455,[-0.09320959],78,44,hard,minus,dotcolour,alfa,,,125,18,M,R,
6,6,6,0,0,27,53,534,['n'],1,right,['1'],6,209,[-0.13699658],94,53,easy,minus,dotcolour,alfa,,,125,18,M,R,
7,7,7,0,0,27,53,533,['n'],1,right,['2'],5,340,[-0.09178814],80,53,easy,minus,dotcolour,alfa,,,125,18,M,R,
8,8,8,0,0,27,53,467,['n'],1,right,['1'],6,309,[-0.02730031],61,53,easy,minus,dotcolour,alfa,,,125,18,M,R,
9,9,9,0,0,53,27,517,['c'],1,left,['1'],6,221,[0.09146252],85,53,easy,minus,dotcolour,alfa,,,125,18,M,R,
10,10,10,0,0,33,47,534,['n'],1,right,['1'],6,223,[-0.18033513],97,47,medium,minus,dotcolour,alfa,,,125,18,M,R,
11,11,11,0,0,47,33,1351,['c'],1,left,['2'],5,290,[0.123487],89,47,medium,minus,dotcolour,alfa,,,125,18,M,R,
12,12,12,0,0,33,47,500,['n'],1,right,['2'],5,307,[-0.14630216],92,47,medium,minus,dotcolour,alfa,,,125,18,M,R,
13,13,13,0,0,47,33,951,['c'],1,left,['2'],5,258,[0.00657592],53,47,medium,minus,dotcolour,alfa,,,125,18,M,R,
14,14,14,0,0,44,36,885,['c'],1,left,['3'],4,245,[0.10305575],87,44,hard,minus,dotcolour,alfa,,,125,18,M,R,
15,15,15,0,0,53,27,767,['c'],1,left,['1'],6,358,[0.20414432],96,53,easy,minus,dotcolour,alfa,,,125,18,M,R,
16,16,16,0,0,53,27,517,['c'],1,left,['1'],6,212,[0.12155878],91,53,easy,minus,dotcolour,alfa,,,125,18,M,R,
17,17,17,0,0,33,47,567,['n'],1,right,['1'],6,182,[-0.0706452],82,47,medium,minus,dotcolour,alfa,,,125,18,M,R,
18,18,18,0,0,33,47,501,['n'],1,right,['2'],5,196,[-0.19870849],98,47,medium,minus,dotcolour,alfa,,,125,18,M,R,
19,19,19,0,0,44,36,850,['c'],1,left,['2'],5,627,[0.13574859],82,44,hard,minus,dotcolour,alfa,,,125,18,M,R,
20,20,20,0,0,47,33,667,['n'],0,left,['3'],4,513,[-0.05921489],68,47,medium,minus,dotcolour,alfa,,,125,18,M,R,
21,21,21,0,0,53,27,800,['c'],1,left,['2'],5,229,[0.1488828],94,53,easy,minus,dotcolour,alfa,,,125,18,M,R,
22,22,22,0,0,47,33,767,['c'],1,left,['2'],5,1110,[0.0822557],67,47,medium,minus,dotcolour,alfa,,,125,18,M,R,
23,23,23,0,0,27,53,466,['n'],1,right,['2'],5,304,[-0.14977277],92,53,easy,minus,dotcolour,alfa,,,125,18,M,R,
24,24,24,0,0,36,44,500,['c'],0,right,['2'],5,451,[0.03482425],61,44,hard,minus,dotcolour,alfa,,,125,18,M,R,
25,25,25,0,0,53,27,966,['c'],1,left,['2'],5,211,[0.08795012],85,53,easy,minus,dotcolour,alfa,,,125,18,M,R,
26,26,26,0,0,27,53,534,['n'],1,right,['1'],6,230,[-0.13370532],92,53,easy,minus,dotcolour,alfa,,,125,18,M,R,
27,27,27,0,0,33,47,600,['n'],1,right,['1'],6,134,[-0.1245838],96,47,medium,minus,dotcolour,alfa,,,125,18,M,R,
28,28,28,0,0,44,36,1101,['c'],1,left,['2'],5,126,[0.08296032],89,44,hard,minus,dotcolour,alfa,,,125,18,M,R,
29,29,29,0,0,36,44,867,['c'],0,right,['8'],3,1423,[-0.22396997],16,44,hard,minus,dotcolour,alfa,,,125,18,M,R,
30,30,30,0,0,33,47,601,['n'],1,right,['2'],5,671,[-0.08564746],72,47,medium,minus,dotcolour,alfa,,,125,18,M,R,
31,31,31,0,0,27,53,701,['n'],1,right,['1'],6,161,[-0.07937876],86,53,easy,minus,dotcolour,alfa,,,125,18,M,R,
32,32,32,0,0,44,36,734,['c'],1,left,['1'],6,151,[0.08131942],87,44,hard,minus,dotcolour,alfa,,,125,18,M,R,
33,33,33,0,0,36,44,565,['n'],1,right,['1'],6,132,[-0.06456549],83,44,hard,minus,dotcolour,alfa,,,125,18,M,R,
34,34,34,0,0,47,33,1100,['c'],1,left,['2'],5,171,[0.07158354],83,47,medium,minus,dotcolour,alfa,,,125,18,M,R,
35,35,35,0,0,27,53,534,['n'],1,right,['1'],6,177,[-0.06885318],81,53,easy,minus,dotcolour,alfa,,,125,18,M,R,
36,36,36,0,0,33,47,634,['n'],1,right,['1'],6,145,[-0.04837638],76,47,medium,minus,dotcolour,alfa,,,125,18,M,R,
37,37,37,0,0,36,44,650,['n'],1,right,['2'],5,267,[-0.07221627],78,44,hard,minus,dotcolour,alfa,,,125,18,M,R,
38,38,38,0,0,44,36,634,['n'],0,left,['1'],6,304,[0.00302373],49,44,hard,minus,dotcolour,alfa,,,125,18,M,R,
39,39,39,0,0,44,36,1184,['c'],1,left,['2'],5,174,[0.11778521],93,44,hard,minus,dotcolour,alfa,,,125,18,M,R,
40,40,40,0,0,44,36,567,['c'],1,left,['1'],6,177,[0.05581033],77,44,hard,minus,dotcolour,alfa,,,125,18,M,R,
41,41,41,0,0,36,44,617,['n'],1,right,['2'],5,291,[-0.12873605],90,44,hard,minus,dotcolour,alfa,,,125,18,M,R,
42,42,0,1,0,47,33,1750,['n'],0,left,['2'],5,913,[-0.04851642],61,47,medium,minus,dotcolour,alfa,,,125,18,M,R,
43,43,1,1,0,44,36,984,['c'],1,left,['2'],5,158,[0.0610469],80,44,hard,minus,dotcolour,alfa,,,125,18,M,R,
44,44,2,1,0,36,44,633,['n'],1,right,['2'],5,135,[-0.06416717],83,44,hard,minus,dotcolour,alfa,,,125,18,M,R,
45,45,3,1,0,36,44,534,['n'],1,right,['2'],5,278,[-0.15912529],94,44,hard,minus,dotcolour,alfa,,,125,18,M,R,
46,46,4,1,0,53,27,334,['c'],1,left,['2'],5,143,[0.14966307],97,53,easy,minus,dotcolour,alfa,,,125,18,M,R,
47,47,5,1,0,47,33,717,['c'],1,left,['1'],6,149,[0.10205849],92,47,medium,minus,dotcolour,alfa,,,125,18,M,R,
48,48,6,1,0,47,33,1184,['n'],0,left,['3'],4,273,[-0.111283],87,47,medium,minus,dotcolour,alfa,,,125,18,M,R,
49,49,7,1,0,44,36,1734,['c'],1,left,['3'],4,555,[0.04350812],63,44,hard,minus,dotcolour,alfa,,,125,18,M,R,
50,50,8,1,0,33,47,750,['n'],1,right,['2'],5,231,[-0.12770149],92,47,medium,minus,dotcolour,alfa,,,125,18,M,R,
51,51,9,1,0,27,53,717,['c'],0,right,['0'],1,1194,[-0.06410394],37,53,easy,minus,dotcolour,alfa,,,125,18,M,R,
52,52,10,1,0,53,27,1233,['c'],1,left,['1'],6,242,[0.11932286],90,53,easy,minus,dotcolour,alfa,,,125,18,M,R,
53,53,11,1,0,33,47,617,['n'],1,right,['2'],5,385,[-0.04702806],66,47,medium,minus,dotcolour,alfa,,,125,18,M,R,
54,54,12,1,0,27,53,517,['n'],1,right,['1'],6,198,[-0.15210007],96,53,easy,minus,dotcolour,alfa,,,125,18,M,R,
55,55,13,1,0,53,27,717,['c'],1,left,['1'],6,179,[0.13011543],94,53,easy,minus,dotcolour,alfa,,,125,18,M,R,
56,56,14,1,0,44,36,700,['c'],1,left,['2'],5,169,[0.16745217],98,44,hard,minus,dotcolour,alfa,,,125,18,M,R,
57,57,15,1,0,53,27,1117,['c'],1,left,['1'],6,175,[0.17139246],98,53,easy,minus,dotcolour,alfa,,,125,18,M,R,
58,58,16,1,0,36,44,650,['n'],1,right,['1'],6,183,[-0.10508277],90,44,hard,minus,dotcolour,alfa,,,125,18,M,R,
59,59,17,1,0,36,44,716,['n'],1,right,['2'],5,284,[-0.07313769],77,44,hard,minus,dotcolour,alfa,,,125,18,M,R,
60,60,18,1,0,47,33,617,['c'],1,left,['1'],6,274,[0.14233375],92,47,medium,minus,dotcolour,alfa,,,125,18,M,R,
61,61,19,1,0,27,53,850,['n'],1,right,['1'],6,111,[-0.05677546],82,53,easy,minus,dotcolour,alfa,,,125,18,M,R,
62,62,20,1,0,44,36,800,['n'],0,left,['3'],4,202,[-0.05657219],76,44,hard,minus,dotcolour,alfa,,,125,18,M,R,
63,63,21,1,0,33,47,534,['n'],1,right,['1'],6,279,[-0.04871242],70,47,medium,minus,dotcolour,alfa,,,125,18,M,R,
64,64,22,1,0,33,47,900,['n'],1,right,['1'],6,137,[-0.14259695],97,47,medium,minus,dotcolour,alfa,,,125,18,M,R,
65,65,23,1,0,36,44,8085,['n'],1,right,['3'],4,1161,[0.05689269],38,44,hard,minus,dotcolour,alfa,,,125,18,M,R,
66,66,24,1,0,27,53,683,['n'],1,right,['1'],6,185,[-0.13604947],95,53,easy,minus,dotcolour,alfa,,,125,18,M,R,
67,67,25,1,0,47,33,883,['c'],1,left,['1'],6,256,[0.02769345],62,47,medium,minus,dotcolour,alfa,,,125,18,M,R,
68,68,26,1,0,27,53,734,['n'],1,right,['1'],6,169,[-0.10069455],90,53,easy,minus,dotcolour,alfa,,,125,18,M,R,
69,69,27,1,0,27,53,1050,['n'],1,right,['2'],5,3634,[-0.72548881],97,53,easy,minus,dotcolour,alfa,,,125,18,M,R,
70,70,28,1,0,47,33,783,['c'],1,left,['1'],6,185,[0.05318844],75,47,medium,minus,dotcolour,alfa,,,125,18,M,R,
71,71,29,1,0,44,36,500,['n'],0,left,['3'],4,559,[-0.06276245],68,44,hard,minus,dotcolour,alfa,,,125,18,M,R,
72,72,30,1,0,53,27,583,['c'],1,left,['1'],6,274,[0.07513647],78,53,easy,minus,dotcolour,alfa,,,125,18,M,R,
73,73,31,1,0,53,27,1050,['c'],1,left,['1'],6,174,[0.10478523],91,53,easy,minus,dotcolour,alfa,,,125,18,M,R,
74,74,32,1,0,47,33,717,['c'],1,left,['2'],5,147,[0.15088642],97,47,medium,minus,dotcolour,alfa,,,125,18,M,R,
75,75,33,1,0,27,53,450,['n'],1,right,['1'],6,205,[-0.15860944],96,53,easy,minus,dotcolour,alfa,,,125,18,M,R,
76,76,34,1,0,53,27,784,['c'],1,left,['2'],5,159,[0.10397328],91,53,easy,minus,dotcolour,alfa,,,125,18,M,R,
77,77,35,1,0,44,36,683,['c'],1,left,['2'],5,158,[0.06341105],81,44,hard,minus,dotcolour,alfa,,,125,18,M,R,
78,78,36,1,0,36,44,866,['n'],1,right,['2'],5,1182,[-0.11676069],72,44,hard,minus,dotcolour,alfa,,,125,18,M,R,
79,79,37,1,0,33,47,866,['n'],1,right,['2'],5,294,[-0.08098016],79,47,medium,minus,dotcolour,alfa,,,125,18,M,R,
80,80,38,1,0,36,44,1566,['c'],0,right,['2'],5,211,[0.09642416],87,44,hard,minus,dotcolour,alfa,,,125,18,M,R,
81,81,39,1,0,33,47,533,['n'],1,right,['1'],6,287,[-0.07741918],79,47,medium,minus,dotcolour,alfa,,,125,18,M,R,
82,82,40,1,0,33,47,817,['n'],1,right,['2'],5,252,[-0.15077785],94,47,medium,minus,dotcolour,alfa,,,125,18,M,R,
83,83,41,1,0,44,36,1201,['n'],0,left,['3'],4,748,[-0.12125477],78,44,hard,minus,dotcolour,alfa,,,125,18,M,R,
84,84,0,2,0,44,36,867,['n'],0,left,['3'],4,246,[-0.07616766],80,44,hard,minus,dotcolour,alfa,,,125,18,M,R,
85,85,1,2,0,47,33,784,['c'],1,left,['2'],5,246,[0.07018246],78,47,medium,minus,dotcolour,alfa,,,125,18,M,R,
86,86,2,2,0,47,33,450,['c'],1,left,['2'],5,155,[0.02455877],64,47,medium,minus,dotcolour,alfa,,,125,18,M,R,
87,87,3,2,0,36,44,551,['c'],0,right,['2'],5,144,[0.08178408],87,44,hard,minus,dotcolour,alfa,,,125,18,M,R,
88,88,4,2,0,53,27,684,['c'],1,left,['1'],6,168,[0.09318611],89,53,easy,minus,dotcolour,alfa,,,125,18,M,R,
89,89,5,2,0,53,27,450,['c'],1,left,['1'],6,177,[0.09841389],89,53,easy,minus,dotcolour,alfa,,,125,18,M,R,
90,90,6,2,0,44,36,850,['c'],1,left,['1'],6,145,[0.06399372],82,44,hard,minus,dotcolour,alfa,,,125,18,M,R,
91,91,7,2,0,44,36,734,['c'],1,left,['1'],6,175,[0.08716778],87,44,hard,minus,dotcolour,alfa,,,125,18,M,R,
92,92,8,2,0,27,53,1117,['c'],0,right,['2'],5,300,[-0.02048165],42,53,easy,minus,dotcolour,alfa,,,125,18,M,R,
93,93,9,2,0,27,53,501,['n'],1,right,['1'],6,270,[-0.20575807],97,53,easy,minus,dotcolour,alfa,,,125,18,M,R,
94,94,10,2,0,27,53,468,['n'],1,right,['1'],6,138,[-0.037114],71,53,easy,minus,dotcolour,alfa,,,125,18,M,R,
95,95,11,2,0,44,36,550,['n'],0,left,['1'],6,137,[-0.06532128],83,44,hard,minus,dotcolour,alfa,,,125,18,M,R,
96,96,12,2,0,27,53,583,['n'],1,right,['1'],6,116,[-0.07626471],88,53,easy,minus,dotcolour,alfa,,,125,18,M,R,
97,97,13,2,0,27,53,601,['n'],1,right,['1'],6,113,[-0.13008005],97,53,easy,minus,dotcolour,alfa,,,125,18,M,R,
98,98,14,2,0,47,33,733,['c'],1,left,['1'],6,249,[0.1373946],92,47,medium,minus,dotcolour,alfa,,,125,18,M,R,
99,99,15,2,0,33,47,1250,['c'],0,right,['1'],6,134,[0.10407939],93,47,medium,minus,dotcolour,alfa,,,125,18,M,R,
100,100,16,2,0,53,27,566,['c'],1,left,['1'],6,163,[0.07511697],84,53,easy,minus,dotcolour,alfa,,,125,18,M,R,
101,101,17,2,0,36,44,783,['n'],1,right,['2'],5,215,[-0.07857225],82,44,hard,minus,dotcolour,alfa,,,125,18,M,R,
102,102,18,2,0,47,33,583,['c'],1,left,['1'],6,184,[0.09429102],88,47,medium,minus,dotcolour,alfa,,,125,18,M,R,
103,103,19,2,0,53,27,600,['c'],1,left,['1'],6,138,[0.10265499],92,53,easy,minus,dotcolour,alfa,,,125,18,M,R,
104,104,20,2,0,36,44,2533,['n'],1,right,['2'],5,113,[-0.07919929],89,44,hard,minus,dotcolour,alfa,,,125,18,M,R,
105,105,21,2,0,33,47,666,['n'],1,right,['1'],6,147,[-0.10468333],92,47,medium,minus,dotcolour,alfa,,,125,18,M,R,
106,106,22,2,0,33,47,783,['c'],0,right,['1'],6,151,[0.07962141],86,47,medium,minus,dotcolour,alfa,,,125,18,M,R,
107,107,23,2,0,27,53,799,['n'],1,right,['1'],6,115,[-0.06800347],86,53,easy,minus,dotcolour,alfa,,,125,18,M,R,
108,108,24,2,0,53,27,534,['c'],1,left,['1'],6,162,[0.11971522],94,53,easy,minus,dotcolour,alfa,,,125,18,M,R,
109,109,25,2,0,53,27,683,['c'],1,left,['1'],6,145,[0.15044759],97,53,easy,minus,dotcolour,alfa,,,125,18,M,R,
110,110,26,2,0,33,47,933,['n'],1,right,['1'],6,103,[-0.05422814],82,47,medium,minus,dotcolour,alfa,,,125,18,M,R,
111,111,27,2,0,36,44,784,['n'],1,right,['2'],5,157,[-0.13299335],95,44,hard,minus,dotcolour,alfa,,,125,18,M,R,
112,112,28,2,0,47,33,616,['c'],1,left,['1'],6,239,[0.06353099],76,47,medium,minus,dotcolour,alfa,,,125,18,M,R,
113,113,29,2,0,44,36,732,['c'],1,left,['1'],6,146,[0.08940183],89,44,hard,minus,dotcolour,alfa,,,125,18,M,R,
114,114,30,2,0,44,36,934,['c'],1,left,['1'],6,248,[0.10647183],87,44,hard,minus,dotcolour,alfa,,,125,18,M,R,
115,115,31,2,0,53,27,568,['c'],1,left,['1'],6,128,[0.10066123],93,53,easy,minus,dotcolour,alfa,,,125,18,M,R,
116,116,32,2,0,36,44,600,['n'],1,right,['1'],6,107,[-0.0216925],64,44,hard,minus,dotcolour,alfa,,,125,18,M,R,
117,117,33,2,0,47,33,867,['c'],1,left,['1'],6,174,[0.04795715],74,47,medium,minus,dotcolour,alfa,,,125,18,M,R,
118,118,34,2,0,36,44,1300,['c'],0,right,['2'],5,92,[0.06235051],86,44,hard,minus,dotcolour,alfa,,,125,18,M,R,
119,119,35,2,0,44,36,816,['c'],1,left,['2'],5,137,[0.06290019],82,44,hard,minus,dotcolour,alfa,,,125,18,M,R,
120,120,36,2,0,33,47,700,['n'],1,right,['2'],5,137,[-0.04461087],75,47,medium,minus,dotcolour,alfa,,,125,18,M,R,
121,121,37,2,0,33,47,667,['n'],1,right,['2'],5,146,[-0.09199369],90,47,medium,minus,dotcolour,alfa,,,125,18,M,R,
122,122,38,2,0,33,47,1216,['n'],1,right,['1'],6,141,[-0.02683004],66,47,medium,minus,dotcolour,alfa,,,125,18,M,R,
123,123,39,2,0,27,53,566,['n'],1,right,['1'],6,137,[-0.14006682],97,53,easy,minus,dotcolour,alfa,,,125,18,M,R,
124,124,40,2,0,47,33,1017,['c'],1,left,['2'],5,276,[0.1301894],90,47,medium,minus,dotcolour,alfa,,,125,18,M,R,
125,125,41,2,0,36,44,601,['n'],1,right,['2'],5,162,[-0.11622927],93,44,hard,minus,dotcolour,alfa,,,125,18,M,R,
126,0,0,3,1,27,53,801,['n'],1,right,['1'],6,105,[-0.08264813],100,53,easy,plus,dotcolour,alfa,,,125,18,M,R,
127,1,1,3,1,44,36,833,['c'],1,left,['2'],5,125,[0.0192701],88,44,hard,plus,dotcolour,alfa,,,125,18,M,R,
128,2,2,3,1,33,47,667,['n'],1,right,['1'],6,135,[-0.13604402],100,47,medium,plus,dotcolour,alfa,,,125,18,M,R,
129,3,3,3,1,36,44,567,['n'],1,right,['1'],6,132,[-0.07785418],100,44,hard,plus,dotcolour,alfa,,,125,18,M,R,
130,4,4,3,1,33,47,966,['c'],0,right,['2'],5,97,[0.06779704],100,47,medium,plus,dotcolour,alfa,,,125,18,M,R,
131,5,5,3,1,33,47,601,['n'],1,right,['1'],6,119,[-0.09022286],100,47,medium,plus,dotcolour,alfa,,,125,18,M,R,
132,6,6,3,1,47,33,834,['c'],1,left,['2'],5,130,[0.07650174],100,47,medium,plus,dotcolour,alfa,,,125,18,M,R,
133,7,7,3,1,53,27,783,['c'],1,left,['2'],5,126,[0.1319176],100,53,easy,plus,dotcolour,alfa,,,125,18,M,R,
134,8,8,3,1,36,44,683,['n'],1,right,['1'],6,135,[-0.12453483],100,44,hard,plus,dotcolour,alfa,,,125,18,M,R,
135,9,9,3,1,53,27,617,['c'],1,left,['1'],6,171,[0.07212532],100,53,easy,plus,dotcolour,alfa,,,125,18,M,R,
136,10,10,3,1,44,36,1034,['c'],1,left,['1'],6,117,[0.06444058],100,44,hard,plus,dotcolour,alfa,,,125,18,M,R,
137,11,11,3,1,36,44,682,['n'],1,right,['1'],6,142,[-0.03640359],97,44,hard,plus,dotcolour,alfa,,,125,18,M,R,
138,12,12,3,1,53,27,584,['c'],1,left,['1'],6,161,[0.14757305],100,53,easy,plus,dotcolour,alfa,,,125,18,M,R,
139,13,13,3,1,36,44,1133,['n'],1,right,['2'],5,239,[-0.10574382],100,44,hard,plus,dotcolour,alfa,,,125,18,M,R,
140,14,14,3,1,53,27,650,['c'],1,left,['1'],6,180,[0.13469651],100,53,easy,plus,dotcolour,alfa,,,125,18,M,R,
141,15,15,3,1,27,53,1433,['n'],1,right,['1'],6,557,[-0.18717416],100,53,easy,plus,dotcolour,alfa,,,125,18,M,R,
142,16,16,3,1,27,53,600,['n'],1,right,['1'],6,127,[-0.10243967],100,53,easy,plus,dotcolour,alfa,,,125,18,M,R,
143,17,17,3,1,47,33,617,['c'],1,left,['2'],5,131,[0.03499814],97,47,medium,plus,dotcolour,alfa,,,125,18,M,R,
144,18,18,3,1,44,36,634,['n'],0,left,['1'],6,109,[-0.07508052],100,44,hard,plus,dotcolour,alfa,,,125,18,M,R,
145,19,19,3,1,36,44,750,['n'],1,right,['2'],5,133,[-0.05158009],99,44,hard,plus,dotcolour,alfa,,,125,18,M,R,
146,20,20,3,1,47,33,633,['c'],1,left,['2'],5,128,[0.0934379],100,47,medium,plus,dotcolour,alfa,,,125,18,M,R,
147,21,21,3,1,33,47,484,['n'],1,right,['2'],5,183,[-0.08088566],100,47,medium,plus,dotcolour,alfa,,,125,18,M,R,
148,22,22,3,1,47,33,550,['c'],1,left,['2'],5,140,[0.09760028],100,47,medium,plus,dotcolour,alfa,,,125,18,M,R,
149,23,23,3,1,27,53,784,['c'],0,right,['0'],1,1047,[-0.09543543],3,53,easy,plus,dotcolour,alfa,,,125,18,M,R,
150,24,24,3,1,36,44,2335,['n'],1,right,['2'],5,274,[0.06622153],1,44,hard,plus,dotcolour,alfa,,,125,18,M,R,
151,25,25,3,1,47,33,1550,['n'],0,left,['2'],5,137,[-0.01837785],86,47,medium,plus,dotcolour,alfa,,,125,18,M,R,
152,26,26,3,1,53,27,1483,['c'],1,left,['1'],6,178,[0.09079967],100,53,easy,plus,dotcolour,alfa,,,125,18,M,R,
153,27,27,3,1,47,33,1301,['c'],1,left,['2'],5,176,[0.1355912],100,47,medium,plus,dotcolour,alfa,,,125,18,M,R,
154,28,28,3,1,33,47,667,['n'],1,right,['1'],6,160,[-0.07115703],100,47,medium,plus,dotcolour,alfa,,,125,18,M,R,
155,29,29,3,1,53,27,666,['c'],1,left,['1'],6,120,[0.13670992],100,53,easy,plus,dotcolour,alfa,,,125,18,M,R,
156,30,30,3,1,33,47,817,['n'],1,right,['2'],5,164,[-0.07667099],100,47,medium,plus,dotcolour,alfa,,,125,18,M,R,
157,31,31,3,1,44,36,650,['c'],1,left,['1'],6,172,[0.12448196],100,44,hard,plus,dotcolour,alfa,,,125,18,M,R,
158,32,32,3,1,47,33,617,['n'],0,left,['1'],6,101,[-0.03625032],98,47,medium,plus,dotcolour,alfa,,,125,18,M,R,
159,33,33,3,1,27,53,733,['n'],1,right,['1'],6,126,[-0.16377533],100,53,easy,plus,dotcolour,alfa,,,125,18,M,R,
160,34,34,3,1,27,53,1150,['c'],0,right,['2'],5,92,[0.06647764],100,53,easy,plus,dotcolour,alfa,,,125,18,M,R,
161,35,35,3,1,33,47,716,['c'],0,right,['2'],5,117,[0.0831301],100,47,medium,plus,dotcolour,alfa,,,125,18,M,R,
162,36,36,3,1,53,27,1068,['c'],1,left,['2'],5,94,[0.03021673],97,53,easy,plus,dotcolour,alfa,,,125,18,M,R,
163,37,37,3,1,36,44,767,['c'],0,right,['2'],5,117,[0.05271352],100,44,hard,plus,dotcolour,alfa,,,125,18,M,R,
164,38,38,3,1,27,53,684,['n'],1,right,['1'],6,151,[-0.09126422],100,53,easy,plus,dotcolour,alfa,,,125,18,M,R,
165,39,39,3,1,44,36,701,['c'],1,left,['2'],5,135,[0.09908576],100,44,hard,plus,dotcolour,alfa,,,125,18,M,R,
166,40,40,3,1,44,36,1167,['n'],0,left,['2'],5,123,[-0.01356425],80,44,hard,plus,dotcolour,alfa,,,125,18,M,R,
167,41,41,3,1,44,36,632,['c'],1,left,['1'],6,150,[0.08800289],100,44,hard,plus,dotcolour,alfa,,,125,18,M,R,
168,42,0,4,1,44,36,951,['c'],1,left,['1'],6,110,[0.05019334],100,44,hard,plus,dotcolour,alfa,,,125,18,M,R,
169,43,1,4,1,27,53,683,['n'],1,right,['1'],6,88,[-0.05101499],100,53,easy,plus,dotcolour,alfa,,,125,18,M,R,
170,44,2,4,1,53,27,1067,['c'],1,left,['2'],5,379,[-0.0185252],25,53,easy,plus,dotcolour,alfa,,,125,18,M,R,
171,45,3,4,1,33,47,1600,['n'],1,right,['1'],6,188,[-0.06481261],100,47,medium,plus,dotcolour,alfa,,,125,18,M,R,
172,46,4,4,1,44,36,1350,['c'],1,left,['2'],5,169,[0.08552476],100,44,hard,plus,dotcolour,alfa,,,125,18,M,R,
173,47,5,4,1,27,53,601,['n'],1,right,['1'],6,156,[-0.13260107],100,53,easy,plus,dotcolour,alfa,,,125,18,M,R,
174,48,6,4,1,36,44,866,['n'],1,right,['2'],5,148,[-0.05928848],100,44,hard,plus,dotcolour,alfa,,,125,18,M,R,
175,49,7,4,1,44,36,982,['n'],0,left,['3'],4,153,[-0.05875535],100,44,hard,plus,dotcolour,alfa,,,125,18,M,R,
176,50,8,4,1,53,27,567,['c'],1,left,['2'],5,197,[0.09233967],100,53,easy,plus,dotcolour,alfa,,,125,18,M,R,
177,51,9,4,1,47,33,633,['c'],1,left,['1'],6,221,[0.10184089],100,47,medium,plus,dotcolour,alfa,,,125,18,M,R,
178,52,10,4,1,27,53,733,['n'],1,right,['1'],6,120,[-0.07746676],100,53,easy,plus,dotcolour,alfa,,,125,18,M,R,
179,53,11,4,1,33,47,683,['n'],1,right,['2'],5,257,[0.03442002],8,47,medium,plus,dotcolour,alfa,,,125,18,M,R,
180,54,12,4,1,27,53,800,['n'],1,right,['1'],6,184,[-0.08009716],100,53,easy,plus,dotcolour,alfa,,,125,18,M,R,
181,55,13,4,1,47,33,549,['c'],1,left,['1'],6,196,[0.13502222],100,47,medium,plus,dotcolour,alfa,,,125,18,M,R,
182,56,14,4,1,27,53,800,['n'],1,right,['1'],6,214,[-0.12405438],100,53,easy,plus,dotcolour,alfa,,,125,18,M,R,
183,57,15,4,1,27,53,566,['n'],1,right,['1'],6,152,[-0.11314772],100,53,easy,plus,dotcolour,alfa,,,125,18,M,R,
184,58,16,4,1,44,36,717,['c'],1,left,['2'],5,294,[0.12023034],100,44,hard,plus,dotcolour,alfa,,,125,18,M,R,
185,59,17,4,1,33,47,650,['n'],1,right,['2'],5,322,[-0.16434684],100,47,medium,plus,dotcolour,alfa,,,125,18,M,R,
186,60,18,4,1,47,33,600,['n'],0,left,['2'],5,246,[-0.09678712],100,47,medium,plus,dotcolour,alfa,,,125,18,M,R,
187,61,19,4,1,53,27,634,['c'],1,left,['1'],6,196,[0.03536237],95,53,easy,plus,dotcolour,alfa,,,125,18,M,R,
188,62,20,4,1,36,44,750,['c'],0,right,['2'],5,168,[0.02828871],92,44,hard,plus,dotcolour,alfa,,,125,18,M,R,
189,63,21,4,1,36,44,649,['c'],0,right,['2'],5,184,[-0.00987691],30,44,hard,plus,dotcolour,alfa,,,125,18,M,R,
190,64,22,4,1,53,27,502,['c'],1,left,['1'],6,174,[0.09875396],100,53,easy,plus,dotcolour,alfa,,,125,18,M,R,
191,65,23,4,1,53,27,667,['c'],1,left,['1'],6,149,[0.08940062],100,53,easy,plus,dotcolour,alfa,,,125,18,M,R,
192,66,24,4,1,33,47,717,['n'],1,right,['1'],6,140,[-0.12841446],100,47,medium,plus,dotcolour,alfa,,,125,18,M,R,
193,67,25,4,1,33,47,650,['n'],1,right,['1'],6,109,[-0.07255588],100,47,medium,plus,dotcolour,alfa,,,125,18,M,R,
194,68,26,4,1,36,44,551,['n'],1,right,['1'],6,132,[-0.06712741],100,44,hard,plus,dotcolour,alfa,,,125,18,M,R,
195,69,27,4,1,44,36,734,['n'],0,left,['1'],6,130,[-0.08787204],100,44,hard,plus,dotcolour,alfa,,,125,18,M,R,
196,70,28,4,1,33,47,484,['n'],1,right,['1'],6,99,[-0.0891045],100,47,medium,plus,dotcolour,alfa,,,125,18,M,R,
197,71,29,4,1,47,33,767,['c'],1,left,['1'],6,114,[0.07309844],100,47,medium,plus,dotcolour,alfa,,,125,18,M,R,
198,72,30,4,1,47,33,967,['c'],1,left,['2'],5,264,[0.13391339],100,47,medium,plus,dotcolour,alfa,,,125,18,M,R,
199,73,31,4,1,33,47,599,['n'],1,right,['1'],6,143,[-0.05445534],99,47,medium,plus,dotcolour,alfa,,,125,18,M,R,
200,74,32,4,1,36,44,500,['n'],1,right,['2'],5,350,[-0.11158958],100,44,hard,plus,dotcolour,alfa,,,125,18,M,R,
201,75,33,4,1,36,44,1034,['n'],1,right,['2'],5,208,[-0.13403331],100,44,hard,plus,dotcolour,alfa,,,125,18,M,R,
202,76,34,4,1,47,33,1033,['c'],1,left,['2'],5,992,[0.05185766],87,47,medium,plus,dotcolour,alfa,,,125,18,M,R,
203,77,35,4,1,36,44,483,['n'],1,right,['1'],6,157,[-0.02199814],88,44,hard,plus,dotcolour,alfa,,,125,18,M,R,
204,78,36,4,1,53,27,867,['c'],1,left,['1'],6,166,[0.09134513],100,53,easy,plus,dotcolour,alfa,,,125,18,M,R,
205,79,37,4,1,27,53,616,['n'],1,right,['1'],6,152,[-0.04647003],99,53,easy,plus,dotcolour,alfa,,,125,18,M,R,
206,80,38,4,1,44,36,651,['c'],1,left,['1'],6,136,[0.06819963],100,44,hard,plus,dotcolour,alfa,,,125,18,M,R,
207,81,39,4,1,53,27,567,['c'],1,left,['1'],6,150,[0.03099969],95,53,easy,plus,dotcolour,alfa,,,125,18,M,R,
208,82,40,4,1,44,36,567,['n'],0,left,['2'],5,163,[-0.06868863],100,44,hard,plus,dotcolour,alfa,,,125,18,M,R,
209,83,41,4,1,47,33,650,['c'],1,left,['2'],5,123,[0.05168997],100,47,medium,plus,dotcolour,alfa,,,125,18,M,R,
210,84,0,5,1,44,36,683,['c'],1,left,['2'],5,137,[0.12089395],100,44,hard,plus,dotcolour,alfa,,,125,18,M,R,
211,85,1,5,1,27,53,467,['n'],1,right,['1'],6,154,[-0.07970953],100,53,easy,plus,dotcolour,alfa,,,125,18,M,R,
212,86,2,5,1,33,47,651,['n'],1,right,['1'],6,171,[-0.09078151],100,47,medium,plus,dotcolour,alfa,,,125,18,M,R,
213,87,3,5,1,36,44,517,['n'],1,right,['1'],6,98,[-0.04298782],99,44,hard,plus,dotcolour,alfa,,,125,18,M,R,
214,88,4,5,1,36,44,733,['c'],0,right,['1'],6,177,[0.09337304],100,44,hard,plus,dotcolour,alfa,,,125,18,M,R,
215,89,5,5,1,33,47,599,['n'],1,right,['1'],6,180,[-0.10987145],100,47,medium,plus,dotcolour,alfa,,,125,18,M,R,
216,90,6,5,1,27,53,532,['n'],1,right,['1'],6,144,[-0.05926885],100,53,easy,plus,dotcolour,alfa,,,125,18,M,R,
217,91,7,5,1,47,33,750,['c'],1,left,['1'],6,270,[0.17811149],100,47,medium,plus,dotcolour,alfa,,,125,18,M,R,
218,92,8,5,1,33,47,567,['n'],1,right,['1'],6,117,[-0.07544746],100,47,medium,plus,dotcolour,alfa,,,125,18,M,R,
219,93,9,5,1,53,27,783,['c'],1,left,['1'],6,147,[0.1288731],100,53,easy,plus,dotcolour,alfa,,,125,18,M,R,
220,94,10,5,1,36,44,551,['n'],1,right,['1'],6,144,[-0.04392567],98,44,hard,plus,dotcolour,alfa,,,125,18,M,R,
221,95,11,5,1,47,33,1316,['n'],0,left,['2'],5,183,[-0.08565481],100,47,medium,plus,dotcolour,alfa,,,125,18,M,R,
222,96,12,5,1,36,44,634,['n'],1,right,['1'],6,103,[-0.04568406],99,44,hard,plus,dotcolour,alfa,,,125,18,M,R,
223,97,13,5,1,53,27,883,['c'],1,left,['1'],6,194,[0.10887784],100,53,easy,plus,dotcolour,alfa,,,125,18,M,R,
224,98,14,5,1,44,36,933,['c'],1,left,['2'],5,430,[0.07877303],99,44,hard,plus,dotcolour,alfa,,,125,18,M,R,
225,99,15,5,1,27,53,450,['n'],1,right,['2'],5,156,[-0.13098552],100,53,easy,plus,dotcolour,alfa,,,125,18,M,R,
226,100,16,5,1,53,27,567,['n'],0,left,['1'],6,112,[0.00079908],48,53,easy,plus,dotcolour,alfa,,,125,18,M,R,
227,101,17,5,1,36,44,850,['n'],1,right,['2'],5,194,[-0.04097655],97,44,hard,plus,dotcolour,alfa,,,125,18,M,R,
228,102,18,5,1,44,36,966,['c'],1,left,['2'],5,149,[0.09921039],100,44,hard,plus,dotcolour,alfa,,,125,18,M,R,
229,103,19,5,1,44,36,750,['c'],1,left,['2'],5,139,[0.08987712],100,44,hard,plus,dotcolour,alfa,,,125,18,M,R,
230,104,20,5,1,47,33,734,['c'],1,left,['1'],6,241,[0.13809206],100,47,medium,plus,dotcolour,alfa,,,125,18,M,R,
231,105,21,5,1,27,53,549,['n'],1,right,['1'],6,179,[-0.07433072],100,53,easy,plus,dotcolour,alfa,,,125,18,M,R,
232,106,22,5,1,47,33,1100,['c'],1,left,['1'],6,232,[0.0646223],99,47,medium,plus,dotcolour,alfa,,,125,18,M,R,
233,107,23,5,1,47,33,601,['c'],1,left,['1'],6,984,[0.21433615],100,47,medium,plus,dotcolour,alfa,,,125,18,M,R,
234,108,24,5,1,27,53,516,['n'],1,right,['1'],6,165,[-0.11982214],100,53,easy,plus,dotcolour,alfa,,,125,18,M,R,
235,109,25,5,1,27,53,450,['n'],1,right,['1'],6,143,[-0.07837837],100,53,easy,plus,dotcolour,alfa,,,125,18,M,R,
236,110,26,5,1,53,27,1066,['n'],0,left,['1'],6,142,[-0.02102545],88,53,easy,plus,dotcolour,alfa,,,125,18,M,R,
237,111,27,5,1,33,47,684,['n'],1,right,['1'],6,158,[-0.08719411],100,47,medium,plus,dotcolour,alfa,,,125,18,M,R,
238,112,28,5,1,44,36,1166,['c'],1,left,['2'],5,131,[0.02306651],91,44,hard,plus,dotcolour,alfa,,,125,18,M,R,
239,113,29,5,1,33,47,1065,['n'],1,right,['2'],5,165,[-0.09047934],100,47,medium,plus,dotcolour,alfa,,,125,18,M,R,
240,114,30,5,1,33,47,485,['n'],1,right,['2'],5,139,[-0.03475843],97,47,medium,plus,dotcolour,alfa,,,125,18,M,R,
241,115,31,5,1,36,44,1283,['n'],1,right,['2'],5,140,[-0.05517325],100,44,hard,plus,dotcolour,alfa,,,125,18,M,R,
242,116,32,5,1,44,36,734,['c'],1,left,['2'],5,138,[0.05899246],100,44,hard,plus,dotcolour,alfa,,,125,18,M,R,
243,117,33,5,1,47,33,517,['c'],1,left,['2'],5,170,[0.10544191],100,47,medium,plus,dotcolour,alfa,,,125,18,M,R,
244,118,34,5,1,53,27,617,['c'],1,left,['2'],5,147,[0.06473984],100,53,easy,plus,dotcolour,alfa,,,125,18,M,R,
245,119,35,5,1,44,36,900,['c'],1,left,['2'],5,115,[0.03810476],98,44,hard,plus,dotcolour,alfa,,,125,18,M,R,
246,120,36,5,1,47,33,650,['c'],1,left,['1'],6,214,[0.14833888],100,47,medium,plus,dotcolour,alfa,,,125,18,M,R,
247,121,37,5,1,36,44,1199,['n'],1,right,['2'],5,430,[-0.08274987],99,44,hard,plus,dotcolour,alfa,,,125,18,M,R,
248,122,38,5,1,53,27,716,['c'],1,left,['1'],6,258,[0.05648467],98,53,easy,plus,dotcolour,alfa,,,125,18,M,R,
249,123,39,5,1,27,53,883,['n'],1,right,['1'],6,229,[-0.13813965],100,53,easy,plus,dotcolour,alfa,,,125,18,M,R,
250,124,40,5,1,53,27,1950,['c'],1,left,['1'],6,207,[0.06989665],100,53,easy,plus,dotcolour,alfa,,,125,18,M,R,
251,125,41,5,1,33,47,951,['n'],1,right,['2'],5,162,[-0.07931058],100,47,medium,plus,dotcolour,alfa,,,125,18,M,R,
252,0,0,6,2,36,44,817,['n'],1,right,['2'],5,191,[-0.0705802],81,44,hard,minus,dotcolour,alfa,,,125,18,M,R,
253,1,1,6,2,27,53,550,['n'],1,right,['2'],5,163,[-0.03820381],70,53,easy,minus,dotcolour,alfa,,,125,18,M,R,
254,2,2,6,2,47,33,584,['c'],1,left,['2'],5,198,[0.06168372],78,47,medium,minus,dotcolour,alfa,,,125,18,M,R,
255,3,3,6,2,33,47,766,['n'],1,right,['1'],6,408,[-0.21292154],95,47,medium,minus,dotcolour,alfa,,,125,18,M,R,
256,4,4,6,2,27,53,567,['n'],1,right,['1'],6,218,[-0.06512167],78,53,easy,minus,dotcolour,alfa,,,125,18,M,R,
257,5,5,6,2,44,36,834,['c'],1,left,['1'],6,170,[0.05874608],78,44,hard,minus,dotcolour,alfa,,,125,18,M,R,
258,6,6,6,2,44,36,1017,['n'],0,left,['2'],5,212,[-0.08461993],84,44,hard,minus,dotcolour,alfa,,,125,18,M,R,
259,7,7,6,2,27,53,551,['n'],1,right,['1'],6,302,[-0.16218693],93,53,easy,minus,dotcolour,alfa,,,125,18,M,R,
260,8,8,6,2,33,47,551,['n'],1,right,['1'],6,206,[-0.06812047],79,47,medium,minus,dotcolour,alfa,,,125,18,M,R,
261,9,9,6,2,27,53,649,['n'],1,right,['1'],6,172,[-0.07643711],84,53,easy,minus,dotcolour,alfa,,,125,18,M,R,
262,10,10,6,2,33,47,717,['n'],1,right,['1'],6,130,[-0.14802671],98,47,medium,minus,dotcolour,alfa,,,125,18,M,R,
263,11,11,6,2,53,27,900,['c'],1,left,['1'],6,178,[0.13224953],94,53,easy,minus,dotcolour,alfa,,,125,18,M,R,
264,12,12,6,2,36,44,1516,['c'],0,right,['2'],5,231,[0.09840671],86,44,hard,minus,dotcolour,alfa,,,125,18,M,R,
265,13,13,6,2,44,36,651,['c'],1,left,['2'],5,181,[0.13841356],95,44,hard,minus,dotcolour,alfa,,,125,18,M,R,
266,14,14,6,2,44,36,633,['c'],1,left,['2'],5,174,[0.07728271],84,44,hard,minus,dotcolour,alfa,,,125,18,M,R,
267,15,15,6,2,47,33,933,['n'],0,left,['1'],6,194,[-0.00323934],52,47,medium,minus,dotcolour,alfa,,,125,18,M,R,
268,16,16,6,2,47,33,500,['c'],1,left,['2'],5,192,[0.05520993],76,47,medium,minus,dotcolour,alfa,,,125,18,M,R,
269,17,17,6,2,44,36,850,['n'],0,left,['2'],5,368,[0.03846715],36,44,hard,minus,dotcolour,alfa,,,125,18,M,R,
270,18,18,6,2,33,47,617,['n'],1,right,['2'],5,154,[-0.09528391],90,47,medium,minus,dotcolour,alfa,,,125,18,M,R,
271,19,19,6,2,33,47,717,['n'],1,right,['1'],6,160,[-0.05307551],77,47,medium,minus,dotcolour,alfa,,,125,18,M,R,
272,20,20,6,2,27,53,467,['n'],1,right,['1'],6,144,[-0.09430877],90,53,easy,minus,dotcolour,alfa,,,125,18,M,R,
273,21,21,6,2,47,33,734,['c'],1,left,['1'],6,886,[0.24311305],91,47,medium,minus,dotcolour,alfa,,,125,18,M,R,
274,22,22,6,2,27,53,1151,['n'],1,right,['1'],6,261,[-0.11829386],89,53,easy,minus,dotcolour,alfa,,,125,18,M,R,
275,23,23,6,2,53,27,550,['c'],1,left,['1'],6,222,[0.09270667],85,53,easy,minus,dotcolour,alfa,,,125,18,M,R,
276,24,24,6,2,36,44,950,['n'],1,right,['2'],5,377,[-0.08501629],78,44,hard,minus,dotcolour,alfa,,,125,18,M,R,
277,25,25,6,2,36,44,667,['n'],1,right,['2'],5,184,[-0.12116766],93,44,hard,minus,dotcolour,alfa,,,125,18,M,R,
278,26,26,6,2,53,27,950,['c'],1,left,['1'],6,212,[0.22959164],99,53,easy,minus,dotcolour,alfa,,,125,18,M,R,
279,27,27,6,2,47,33,666,['c'],1,left,['1'],6,186,[-0.02249754],38,47,medium,minus,dotcolour,alfa,,,125,18,M,R,
280,28,28,6,2,44,36,917,['c'],1,left,['2'],5,128,[0.04132669],74,44,hard,minus,dotcolour,alfa,,,125,18,M,R,
281,29,29,6,2,33,47,533,['n'],1,right,['1'],6,150,[-0.10189604],91,47,medium,minus,dotcolour,alfa,,,125,18,M,R,
282,30,30,6,2,36,44,650,['n'],1,right,['1'],6,208,[-0.13542805],94,44,hard,minus,dotcolour,alfa,,,125,18,M,R,
283,31,31,6,2,53,27,634,['c'],1,left,['1'],6,191,[0.16934733],97,53,easy,minus,dotcolour,alfa,,,125,18,M,R,
284,32,32,6,2,44,36,766,['c'],1,left,['1'],6,186,[0.11970346],92,44,hard,minus,dotcolour,alfa,,,125,18,M,R,
285,33,33,6,2,47,33,633,['c'],1,left,['2'],5,346,[0.27128861],98,47,medium,minus,dotcolour,alfa,,,125,18,M,R,
286,34,34,6,2,53,27,583,['c'],1,left,['2'],5,191,[0.11494089],91,53,easy,minus,dotcolour,alfa,,,125,18,M,R,
287,35,35,6,2,36,44,617,['c'],0,right,['2'],5,183,[0.02906727],65,44,hard,minus,dotcolour,alfa,,,125,18,M,R,
288,36,36,6,2,33,47,933,['n'],1,right,['2'],5,1236,[-0.26185341],89,47,medium,minus,dotcolour,alfa,,,125,18,M,R,
289,37,37,6,2,36,44,584,['n'],1,right,['2'],5,163,[-0.09022596],88,44,hard,minus,dotcolour,alfa,,,125,18,M,R,
290,38,38,6,2,27,53,649,['n'],1,right,['1'],6,284,[-0.18237623],96,53,easy,minus,dotcolour,alfa,,,125,18,M,R,
291,39,39,6,2,47,33,800,['c'],1,left,['2'],5,170,[0.105966],91,47,medium,minus,dotcolour,alfa,,,125,18,M,R,
292,40,40,6,2,53,27,567,['c'],1,left,['1'],6,279,[0.12371582],89,53,easy,minus,dotcolour,alfa,,,125,18,M,R,
293,41,41,6,2,53,27,517,['c'],1,left,['1'],6,176,[0.15974598],97,53,easy,minus,dotcolour,alfa,,,125,18,M,R,
294,42,0,7,2,47,33,1117,['c'],1,left,['1'],6,182,[0.09282582],88,47,medium,minus,dotcolour,alfa,,,125,18,M,R,
295,43,1,7,2,36,44,483,['n'],1,right,['2'],5,245,[-0.05226448],72,44,hard,minus,dotcolour,alfa,,,125,18,M,R,
296,44,2,7,2,33,47,467,['n'],1,right,['2'],5,170,[-0.09788647],89,47,medium,minus,dotcolour,alfa,,,125,18,M,R,
297,45,3,7,2,36,44,501,['n'],1,right,['2'],5,312,[-0.10265318],84,44,hard,minus,dotcolour,alfa,,,125,18,M,R,
298,46,4,7,2,44,36,717,['n'],0,left,['2'],5,145,[-0.00658167],54,44,hard,minus,dotcolour,alfa,,,125,18,M,R,
299,47,5,7,2,47,33,750,['c'],1,left,['1'],6,214,[0.13809131],94,47,medium,minus,dotcolour,alfa,,,125,18,M,R,
300,48,6,7,2,33,47,667,['n'],1,right,['2'],5,172,[-0.1239352],94,47,medium,minus,dotcolour,alfa,,,125,18,M,R,
301,49,7,7,2,44,36,667,['c'],1,left,['1'],6,156,[-0.01581119],41,44,hard,minus,dotcolour,alfa,,,125,18,M,R,
302,50,8,7,2,33,47,733,['n'],1,right,['1'],6,146,[-0.13135259],96,47,medium,minus,dotcolour,alfa,,,125,18,M,R,
303,51,9,7,2,33,47,917,['n'],1,right,['2'],5,384,[-0.05283309],68,47,medium,minus,dotcolour,alfa,,,125,18,M,R,
304,52,10,7,2,53,27,467,['c'],1,left,['1'],6,193,[0.06784695],80,53,easy,minus,dotcolour,alfa,,,125,18,M,R,
305,53,11,7,2,47,33,1100,['c'],1,left,['2'],5,157,[0.08825736],88,47,medium,minus,dotcolour,alfa,,,125,18,M,R,
306,54,12,7,2,27,53,616,['n'],1,right,['1'],6,359,[-0.11854427],86,53,easy,minus,dotcolour,alfa,,,125,18,M,R,
307,55,13,7,2,53,27,1167,['c'],1,left,['2'],5,228,[0.04692634],71,53,easy,minus,dotcolour,alfa,,,125,18,M,R,
308,56,14,7,2,47,33,850,['c'],1,left,['2'],5,145,[0.10411933],92,47,medium,minus,dotcolour,alfa,,,125,18,M,R,
309,57,15,7,2,33,47,717,['n'],1,right,['2'],5,232,[-0.04021583],68,47,medium,minus,dotcolour,alfa,,,125,18,M,R,
310,58,16,7,2,53,27,1133,['c'],1,left,['1'],6,187,[0.037766],69,53,easy,minus,dotcolour,alfa,,,125,18,M,R,
311,59,17,7,2,44,36,1117,['c'],1,left,['2'],5,144,[0.08604407],89,44,hard,minus,dotcolour,alfa,,,125,18,M,R,
312,60,18,7,2,36,44,467,['n'],1,right,['2'],5,161,[-0.04708813],74,44,hard,minus,dotcolour,alfa,,,125,18,M,R,
313,61,19,7,2,53,27,883,['c'],1,left,['2'],5,184,[0.0646248],80,53,easy,minus,dotcolour,alfa,,,125,18,M,R,
314,62,20,7,2,27,53,817,['n'],1,right,['2'],5,186,[-0.08145316],85,53,easy,minus,dotcolour,alfa,,,125,18,M,R,
315,63,21,7,2,44,36,851,['c'],1,left,['3'],4,865,[-0.02277605],45,44,hard,minus,dotcolour,alfa,,,125,18,M,R,
316,64,22,7,2,47,33,1000,['c'],1,left,['2'],5,160,[0.10897786],92,47,medium,minus,dotcolour,alfa,,,125,18,M,R,
317,65,23,7,2,36,44,750,['n'],1,right,['2'],5,157,[-0.09321557],89,44,hard,minus,dotcolour,alfa,,,125,18,M,R,
318,66,24,7,2,33,47,950,['n'],1,right,['2'],5,1265,[-0.19826129],83,47,medium,minus,dotcolour,alfa,,,125,18,M,R,
319,67,25,7,2,53,27,967,['c'],1,left,['1'],6,425,[0.21164817],95,53,easy,minus,dotcolour,alfa,,,125,18,M,R,
320,68,26,7,2,27,53,916,['n'],1,right,['2'],5,340,[-0.15150401],91,53,easy,minus,dotcolour,alfa,,,125,18,M,R,
321,69,27,7,2,44,36,1550,['n'],0,left,['3'],4,521,[-0.09375833],76,44,hard,minus,dotcolour,alfa,,,125,18,M,R,
322,70,28,7,2,27,53,1034,['n'],1,right,['2'],5,221,[-0.09979056],87,53,easy,minus,dotcolour,alfa,,,125,18,M,R,
323,71,29,7,2,44,36,817,['c'],1,left,['2'],5,196,[0.08593955],85,44,hard,minus,dotcolour,alfa,,,125,18,M,R,
324,72,30,7,2,33,47,667,['n'],1,right,['1'],6,211,[-0.11067864],90,47,medium,minus,dotcolour,alfa,,,125,18,M,R,
325,73,31,7,2,44,36,667,['c'],1,left,['2'],5,161,[0.10721383],92,44,hard,minus,dotcolour,alfa,,,125,18,M,R,
326,74,32,7,2,27,53,766,['n'],1,right,['2'],5,165,[-0.10366268],91,53,easy,minus,dotcolour,alfa,,,125,18,M,R,
327,75,33,7,2,27,53,616,['n'],1,right,['2'],5,199,[-0.07323082],81,53,easy,minus,dotcolour,alfa,,,125,18,M,R,
328,76,34,7,2,27,53,633,['n'],1,right,['2'],5,583,[-0.00535369],52,53,easy,minus,dotcolour,alfa,,,125,18,M,R,
329,77,35,7,2,36,44,1133,['n'],1,right,['3'],4,276,[-0.09286855],83,44,hard,minus,dotcolour,alfa,,,125,18,M,R,
330,78,36,7,2,47,33,1800,['n'],0,left,['8'],3,514,[0.0261422],42,47,medium,minus,dotcolour,alfa,,,125,18,M,R,
331,79,37,7,2,53,27,1283,['c'],1,left,['2'],5,187,[0.0698109],81,53,easy,minus,dotcolour,alfa,,,125,18,M,R,
332,80,38,7,2,36,44,1117,['n'],1,right,['3'],4,312,[-0.09998004],83,44,hard,minus,dotcolour,alfa,,,125,18,M,R,
333,81,39,7,2,36,44,767,['n'],1,right,['1'],6,198,[-0.09991967],88,44,hard,minus,dotcolour,alfa,,,125,18,M,R,
334,82,40,7,2,47,33,783,['c'],1,left,['1'],6,176,[0.08525849],86,47,medium,minus,dotcolour,alfa,,,125,18,M,R,
335,83,41,7,2,53,27,700,['n'],0,left,['1'],6,118,[0.0095597],44,53,easy,minus,dotcolour,alfa,,,125,18,M,R,
336,84,0,8,2,27,53,633,['n'],1,right,['1'],6,166,[-0.04280923],72,53,easy,minus,dotcolour,alfa,,,125,18,M,R,
337,85,1,8,2,53,27,717,['c'],1,left,['2'],5,180,[0.09902883],89,53,easy,minus,dotcolour,alfa,,,125,18,M,R,
338,86,2,8,2,36,44,834,['n'],1,right,['2'],5,140,[-0.12966219],96,44,hard,minus,dotcolour,alfa,,,125,18,M,R,
339,87,3,8,2,36,44,517,['n'],1,right,['2'],5,203,[-0.06362242],78,44,hard,minus,dotcolour,alfa,,,125,18,M,R,
340,88,4,8,2,44,36,684,['c'],1,left,['1'],6,257,[0.09567076],85,44,hard,minus,dotcolour,alfa,,,125,18,M,R,
341,89,5,8,2,53,27,834,['c'],1,left,['2'],5,151,[0.02448285],64,53,easy,minus,dotcolour,alfa,,,125,18,M,R,
342,90,6,8,2,27,53,516,['n'],1,right,['2'],5,165,[-0.07180693],83,53,easy,minus,dotcolour,alfa,,,125,18,M,R,
343,91,7,8,2,27,53,649,['n'],1,right,['1'],6,206,[-0.12199869],92,53,easy,minus,dotcolour,alfa,,,125,18,M,R,
344,92,8,8,2,47,33,784,['c'],1,left,['2'],5,496,[0.11710767],82,47,medium,minus,dotcolour,alfa,,,125,18,M,R,
345,93,9,8,2,53,27,1134,['c'],1,left,['2'],5,279,[0.04508926],68,53,easy,minus,dotcolour,alfa,,,125,18,M,R,
346,94,10,8,2,53,27,1618,['c'],1,left,['2'],5,253,[0.11602236],89,53,easy,minus,dotcolour,alfa,,,125,18,M,R,
347,95,11,8,2,44,36,883,['c'],1,left,['2'],5,313,[-0.00212078],49,44,hard,minus,dotcolour,alfa,,,125,18,M,R,
348,96,12,8,2,33,47,1116,['c'],0,right,['2'],5,154,[0.11454551],93,47,medium,minus,dotcolour,alfa,,,125,18,M,R,
349,97,13,8,2,47,33,1200,['n'],0,left,['3'],4,405,[-0.05041194],67,47,medium,minus,dotcolour,alfa,,,125,18,M,R,
350,98,14,8,2,47,33,817,['c'],1,left,['2'],5,197,[0.02458059],62,47,medium,minus,dotcolour,alfa,,,125,18,M,R,
351,99,15,8,2,44,36,934,['n'],0,left,['3'],4,265,[-0.11658762],88,44,hard,minus,dotcolour,alfa,,,125,18,M,R,
352,100,16,8,2,36,44,883,['n'],1,right,['3'],4,252,[-0.09283357],84,44,hard,minus,dotcolour,alfa,,,125,18,M,R,
353,101,17,8,2,44,36,684,['c'],1,left,['2'],5,184,[-0.000787],50,44,hard,minus,dotcolour,alfa,,,125,18,M,R,
354,102,18,8,2,53,27,700,['c'],1,left,['2'],5,198,[0.08039126],84,53,easy,minus,dotcolour,alfa,,,125,18,M,R,
355,103,19,8,2,33,47,568,['n'],1,right,['1'],6,145,[-0.10034773],91,47,medium,minus,dotcolour,alfa,,,125,18,M,R,
356,104,20,8,2,47,33,916,['c'],1,left,['2'],5,192,[0.11347323],91,47,medium,minus,dotcolour,alfa,,,125,18,M,R,
357,105,21,8,2,53,27,616,['c'],1,left,['1'],6,297,[0.03362233],64,53,easy,minus,dotcolour,alfa,,,125,18,M,R,
358,106,22,8,2,27,53,933,['n'],1,right,['2'],5,528,[-0.18356544],91,53,easy,minus,dotcolour,alfa,,,125,18,M,R,
359,107,23,8,2,33,47,933,['n'],1,right,['2'],5,207,[-0.14670215],95,47,medium,minus,dotcolour,alfa,,,125,18,M,R,
360,108,24,8,2,47,33,800,['c'],1,left,['2'],5,672,[0.06863272],68,47,medium,minus,dotcolour,alfa,,,125,18,M,R,
361,109,25,8,2,36,44,618,['n'],1,right,['3'],4,181,[-0.10424805],90,44,hard,minus,dotcolour,alfa,,,125,18,M,R,
362,110,26,8,2,36,44,867,['c'],0,right,['2'],5,148,[0.13932661],96,44,hard,minus,dotcolour,alfa,,,125,18,M,R,
363,111,27,8,2,44,36,617,['c'],1,left,['2'],5,183,[0.02158158],61,44,hard,minus,dotcolour,alfa,,,125,18,M,R,
364,112,28,8,2,47,33,601,['c'],1,left,['2'],5,145,[0.04599476],75,47,medium,minus,dotcolour,alfa,,,125,18,M,R,
365,113,29,8,2,44,36,750,['c'],1,left,['2'],5,159,[0.15716299],97,44,hard,minus,dotcolour,alfa,,,125,18,M,R,
366,114,30,8,2,27,53,683,['n'],1,right,['2'],5,429,[-0.12302348],84,53,easy,minus,dotcolour,alfa,,,125,18,M,R,
367,115,31,8,2,36,44,733,['n'],1,right,['2'],5,256,[-0.05659903],73,44,hard,minus,dotcolour,alfa,,,125,18,M,R,
368,116,32,8,2,36,44,883,['n'],1,right,['2'],5,252,[-0.05283041],72,44,hard,minus,dotcolour,alfa,,,125,18,M,R,
369,117,33,8,2,33,47,566,['n'],1,right,['2'],5,124,[-0.00254365],52,47,medium,minus,dotcolour,alfa,,,125,18,M,R,
370,118,34,8,2,47,33,616,['n'],0,left,['2'],5,256,[-0.04274924],68,47,medium,minus,dotcolour,alfa,,,125,18,M,R,
371,119,35,8,2,27,53,600,['n'],1,right,['2'],5,190,[-0.01769601],59,53,easy,minus,dotcolour,alfa,,,125,18,M,R,
372,120,36,8,2,44,36,684,['n'],0,left,['2'],5,212,[-0.05475371],74,44,hard,minus,dotcolour,alfa,,,125,18,M,R,
373,121,37,8,2,33,47,717,['n'],1,right,['2'],5,337,[-0.16969694],93,47,medium,minus,dotcolour,alfa,,,125,18,M,R,
374,122,38,8,2,33,47,568,['n'],1,right,['1'],6,302,[-0.13728513],90,47,medium,minus,dotcolour,alfa,,,125,18,M,R,
375,123,39,8,2,27,53,568,['n'],1,right,['1'],6,733,[-0.32428246],97,53,easy,minus,dotcolour,alfa,,,125,18,M,R,
376,124,40,8,2,53,27,783,['c'],1,left,['1'],6,265,[0.11996434],89,53,easy,minus,dotcolour,alfa,,,125,18,M,R,
377,125,41,8,2,33,47,567,['n'],1,right,['2'],5,217,[-0.03169821],65,47,medium,minus,dotcolour,alfa,,,125,18,M,R,
378,0,0,9,3,36,44,767,['n'],1,right,['1'],6,175,[-0.09524656],100,44,hard,plus,dotcolour,alfa,,,125,18,M,R,
379,1,1,9,3,36,44,533,['n'],1,right,['2'],5,155,[-0.06622001],100,44,hard,plus,dotcolour,alfa,,,125,18,M,R,
380,2,2,9,3,36,44,583,['n'],1,right,['2'],5,199,[-0.05171734],98,44,hard,plus,dotcolour,alfa,,,125,18,M,R,
381,3,3,9,3,33,47,717,['n'],1,right,['2'],5,164,[-0.12726094],100,47,medium,plus,dotcolour,alfa,,,125,18,M,R,
382,4,4,9,3,47,33,1034,['c'],1,left,['2'],5,149,[0.05575493],99,47,medium,plus,dotcolour,alfa,,,125,18,M,R,
383,5,5,9,3,44,36,750,['n'],0,left,['2'],5,163,[-0.07040768],100,44,hard,plus,dotcolour,alfa,,,125,18,M,R,
384,6,6,9,3,53,27,766,['c'],1,left,['2'],5,119,[0.11100521],100,53,easy,plus,dotcolour,alfa,,,125,18,M,R,
385,7,7,9,3,44,36,1283,['c'],1,left,['2'],5,217,[0.0549144],99,44,hard,plus,dotcolour,alfa,,,125,18,M,R,
386,8,8,9,3,53,27,634,['c'],1,left,['2'],5,192,[0.17775466],100,53,easy,plus,dotcolour,alfa,,,125,18,M,R,
387,9,9,9,3,33,47,1417,['n'],1,right,['2'],5,224,[-0.08356384],100,47,medium,plus,dotcolour,alfa,,,125,18,M,R,
388,10,10,9,3,47,33,850,['c'],1,left,['2'],5,295,[0.14297273],100,47,medium,plus,dotcolour,alfa,,,125,18,M,R,
389,11,11,9,3,44,36,501,['n'],0,left,['2'],5,184,[-0.02755782],91,44,hard,plus,dotcolour,alfa,,,125,18,M,R,
390,12,12,9,3,33,47,500,['n'],1,right,['2'],5,150,[-0.08708708],100,47,medium,plus,dotcolour,alfa,,,125,18,M,R,
391,13,13,9,3,44,36,684,['c'],1,left,['1'],6,166,[0.06376811],100,44,hard,plus,dotcolour,alfa,,,125,18,M,R,
392,14,14,9,3,47,33,902,['c'],1,left,['1'],6,141,[0.10675591],100,47,medium,plus,dotcolour,alfa,,,125,18,M,R,
393,15,15,9,3,27,53,516,['n'],1,right,['1'],6,476,[-0.15004905],100,53,easy,plus,dotcolour,alfa,,,125,18,M,R,
394,16,16,9,3,44,36,1217,['c'],1,left,['1'],6,449,[0.08390934],99,44,hard,plus,dotcolour,alfa,,,125,18,M,R,
395,17,17,9,3,27,53,1018,['n'],1,right,['1'],6,191,[-0.03970261],96,53,easy,plus,dotcolour,alfa,,,125,18,M,R,
396,18,18,9,3,44,36,1067,['c'],1,left,['2'],5,134,[0.10065765],100,44,hard,plus,dotcolour,alfa,,,125,18,M,R,
397,19,19,9,3,33,47,901,['n'],1,right,['1'],6,270,[-0.07082419],99,47,medium,plus,dotcolour,alfa,,,125,18,M,R,
398,20,20,9,3,47,33,1117,['c'],1,left,['1'],6,192,[0.02975995],92,47,medium,plus,dotcolour,alfa,,,125,18,M,R,
399,21,21,9,3,47,33,817,['c'],1,left,['1'],6,192,[0.04214938],97,47,medium,plus,dotcolour,alfa,,,125,18,M,R,
400,22,22,9,3,27,53,1116,['n'],1,right,['2'],5,165,[-0.05391426],99,53,easy,plus,dotcolour,alfa,,,125,18,M,R,
401,23,23,9,3,47,33,867,['n'],0,left,['2'],5,389,[-0.00838712],62,47,medium,plus,dotcolour,alfa,,,125,18,M,R,
402,24,24,9,3,36,44,683,['n'],1,right,['2'],5,163,[0.0062304],36,44,hard,plus,dotcolour,alfa,,,125,18,M,R,
403,25,25,9,3,33,47,751,['n'],1,right,['1'],6,304,[-0.07840635],99,47,medium,plus,dotcolour,alfa,,,125,18,M,R,
404,26,26,9,3,33,47,684,['n'],1,right,['2'],5,274,[-0.09882213],100,47,medium,plus,dotcolour,alfa,,,125,18,M,R,
405,27,27,9,3,53,27,617,['c'],1,left,['1'],6,175,[0.10495534],100,53,easy,plus,dotcolour,alfa,,,125,18,M,R,
406,28,28,9,3,53,27,832,['c'],1,left,['1'],6,256,[0.15296764],100,53,easy,plus,dotcolour,alfa,,,125,18,M,R,
407,29,29,9,3,53,27,633,['c'],1,left,['1'],6,205,[0.07727508],100,53,easy,plus,dotcolour,alfa,,,125,18,M,R,
408,30,30,9,3,44,36,1450,['n'],0,left,['3'],4,445,[-0.13959747],100,44,hard,plus,dotcolour,alfa,,,125,18,M,R,
409,31,31,9,3,53,27,967,['c'],1,left,['2'],5,173,[0.12985216],100,53,easy,plus,dotcolour,alfa,,,125,18,M,R,
410,32,32,9,3,36,44,917,['n'],1,right,['1'],6,211,[-0.11871377],100,44,hard,plus,dotcolour,alfa,,,125,18,M,R,
411,33,33,9,3,53,27,668,['c'],1,left,['1'],6,168,[0.08283757],100,53,easy,plus,dotcolour,alfa,,,125,18,M,R,
412,34,34,9,3,36,44,850,['c'],0,right,['2'],5,105,[0.03186042],97,44,hard,plus,dotcolour,alfa,,,125,18,M,R,
413,35,35,9,3,27,53,500,['n'],1,right,['1'],6,139,[-0.09704844],100,53,easy,plus,dotcolour,alfa,,,125,18,M,R,
414,36,36,9,3,27,53,500,['n'],1,right,['1'],6,107,[-0.12822593],100,53,easy,plus,dotcolour,alfa,,,125,18,M,R,
415,37,37,9,3,36,44,483,['n'],1,right,['1'],6,124,[-0.10951914],100,44,hard,plus,dotcolour,alfa,,,125,18,M,R,
416,38,38,9,3,27,53,734,['n'],1,right,['1'],6,171,[-0.1147928],100,53,easy,plus,dotcolour,alfa,,,125,18,M,R,
417,39,39,9,3,27,53,516,['n'],1,right,['1'],6,105,[-0.07790522],100,53,easy,plus,dotcolour,alfa,,,125,18,M,R,
418,40,40,9,3,33,47,667,['n'],1,right,['1'],6,140,[-0.06705432],100,47,medium,plus,dotcolour,alfa,,,125,18,M,R,
419,41,41,9,3,47,33,683,['c'],1,left,['1'],6,147,[0.06059314],100,47,medium,plus,dotcolour,alfa,,,125,18,M,R,
420,42,0,10,3,36,44,867,['n'],1,right,['1'],6,143,[-0.11434604],100,44,hard,plus,dotcolour,alfa,,,125,18,M,R,
421,43,1,10,3,33,47,502,['n'],1,right,['1'],6,134,[-0.0972067],100,47,medium,plus,dotcolour,alfa,,,125,18,M,R,
422,44,2,10,3,53,27,1717,['c'],1,left,['2'],5,134,[0.05913187],100,53,easy,plus,dotcolour,alfa,,,125,18,M,R,
423,45,3,10,3,53,27,2100,['c'],1,left,['2'],5,350,[0.02971703],86,53,easy,plus,dotcolour,alfa,,,125,18,M,R,
424,46,4,10,3,44,36,883,['c'],1,left,['2'],5,142,[0.08100886],100,44,hard,plus,dotcolour,alfa,,,125,18,M,R,
425,47,5,10,3,27,53,617,['n'],1,right,['1'],6,136,[-0.07643787],100,53,easy,plus,dotcolour,alfa,,,125,18,M,R,
426,48,6,10,3,47,33,1351,['c'],1,left,['1'],6,206,[0.06147345],99,47,medium,plus,dotcolour,alfa,,,125,18,M,R,
427,49,7,10,3,33,47,518,['n'],1,right,['2'],5,242,[-0.10877549],100,47,medium,plus,dotcolour,alfa,,,125,18,M,R,
428,50,8,10,3,33,47,850,['n'],1,right,['2'],5,128,[-0.14040318],100,47,medium,plus,dotcolour,alfa,,,125,18,M,R,
429,51,9,10,3,44,36,1250,['c'],1,left,['2'],5,226,[0.10474288],100,44,hard,plus,dotcolour,alfa,,,125,18,M,R,
430,52,10,10,3,47,33,735,['c'],1,left,['2'],5,140,[0.11066691],100,47,medium,plus,dotcolour,alfa,,,125,18,M,R,
431,53,11,10,3,33,47,634,['n'],1,right,['2'],5,166,[-0.09362741],100,47,medium,plus,dotcolour,alfa,,,125,18,M,R,
432,54,12,10,3,44,36,501,['n'],0,left,['2'],5,174,[-0.00538087],61,44,hard,plus,dotcolour,alfa,,,125,18,M,R,
433,55,13,10,3,53,27,550,['c'],1,left,['1'],6,282,[0.10727464],100,53,easy,plus,dotcolour,alfa,,,125,18,M,R,
434,56,14,10,3,27,53,701,['n'],1,right,['1'],6,211,[-0.01654456],79,53,easy,plus,dotcolour,alfa,,,125,18,M,R,
435,57,15,10,3,47,33,634,['c'],1,left,['1'],6,162,[0.0848543],100,47,medium,plus,dotcolour,alfa,,,125,18,M,R,
436,58,16,10,3,33,47,568,['n'],1,right,['1'],6,158,[-0.05458537],99,47,medium,plus,dotcolour,alfa,,,125,18,M,R,
437,59,17,10,3,33,47,550,['n'],1,right,['1'],6,163,[-0.05027616],99,47,medium,plus,dotcolour,alfa,,,125,18,M,R,
438,60,18,10,3,53,27,617,['c'],1,left,['2'],5,317,[0.0825104],99,53,easy,plus,dotcolour,alfa,,,125,18,M,R,
439,61,19,10,3,36,44,617,['n'],1,right,['2'],5,345,[-0.04140608],93,44,hard,plus,dotcolour,alfa,,,125,18,M,R,
440,62,20,10,3,47,33,951,['c'],1,left,['1'],6,222,[0.18901373],100,47,medium,plus,dotcolour,alfa,,,125,18,M,R,
441,63,21,10,3,53,27,734,['c'],1,left,['1'],6,129,[0.05440796],100,53,easy,plus,dotcolour,alfa,,,125,18,M,R,
442,64,22,10,3,53,27,600,['c'],1,left,['1'],6,206,[0.1312188],100,53,easy,plus,dotcolour,alfa,,,125,18,M,R,
443,65,23,10,3,36,44,685,['n'],1,right,['2'],5,187,[-0.06113354],99,44,hard,plus,dotcolour,alfa,,,125,18,M,R,
444,66,24,10,3,44,36,516,['c'],1,left,['2'],5,201,[0.11148502],100,44,hard,plus,dotcolour,alfa,,,125,18,M,R,
445,67,25,10,3,27,53,534,['n'],1,right,['2'],5,141,[-0.12655865],100,53,easy,plus,dotcolour,alfa,,,125,18,M,R,
446,68,26,10,3,44,36,567,['n'],0,left,['2'],5,145,[-0.04755329],99,44,hard,plus,dotcolour,alfa,,,125,18,M,R,
447,69,27,10,3,36,44,1034,['n'],1,right,['1'],6,635,[-0.10707479],99,44,hard,plus,dotcolour,alfa,,,125,18,M,R,
448,70,28,10,3,44,36,568,['n'],0,left,['2'],5,172,[-0.0861254],100,44,hard,plus,dotcolour,alfa,,,125,18,M,R,
449,71,29,10,3,36,44,617,['n'],1,right,['2'],5,174,[-0.04753951],98,44,hard,plus,dotcolour,alfa,,,125,18,M,R,
450,72,30,10,3,53,27,850,['c'],1,left,['1'],6,206,[0.08871486],100,53,easy,plus,dotcolour,alfa,,,125,18,M,R,
451,73,31,10,3,36,44,1284,['n'],1,right,['2'],5,572,[-0.11166003],100,44,hard,plus,dotcolour,alfa,,,125,18,M,R,
452,74,32,10,3,33,47,517,['n'],1,right,['1'],6,321,[-0.15124937],100,47,medium,plus,dotcolour,alfa,,,125,18,M,R,
453,75,33,10,3,36,44,1033,['n'],1,right,['1'],6,196,[-0.16206161],100,44,hard,plus,dotcolour,alfa,,,125,18,M,R,
454,76,34,10,3,27,53,584,['n'],1,right,['1'],6,150,[-0.12466792],100,53,easy,plus,dotcolour,alfa,,,125,18,M,R,
455,77,35,10,3,27,53,785,['n'],1,right,['1'],6,378,[-0.11784064],100,53,easy,plus,dotcolour,alfa,,,125,18,M,R,
456,78,36,10,3,47,33,1134,['c'],1,left,['1'],6,159,[0.06314681],100,47,medium,plus,dotcolour,alfa,,,125,18,M,R,
457,79,37,10,3,27,53,833,['n'],1,right,['1'],6,576,[-0.17937168],100,53,easy,plus,dotcolour,alfa,,,125,18,M,R,
458,80,38,10,3,47,33,667,['n'],0,left,['2'],5,151,[-0.05064954],99,47,medium,plus,dotcolour,alfa,,,125,18,M,R,
459,81,39,10,3,47,33,750,['c'],1,left,['1'],6,141,[0.09174877],100,47,medium,plus,dotcolour,alfa,,,125,18,M,R,
460,82,40,10,3,27,53,434,['n'],1,right,['1'],6,143,[-0.06110139],100,53,easy,plus,dotcolour,alfa,,,125,18,M,R,
461,83,41,10,3,44,36,684,['c'],1,left,['1'],6,135,[0.10236839],100,44,hard,plus,dotcolour,alfa,,,125,18,M,R,
462,84,0,11,3,53,27,733,['c'],1,left,['1'],6,128,[0.06158138],100,53,easy,plus,dotcolour,alfa,,,125,18,M,R,
463,85,1,11,3,47,33,750,['n'],0,left,['1'],6,102,[-0.09612429],100,47,medium,plus,dotcolour,alfa,,,125,18,M,R,
464,86,2,11,3,44,36,666,['c'],1,left,['1'],6,112,[0.08557704],100,44,hard,plus,dotcolour,alfa,,,125,18,M,R,
465,87,3,11,3,47,33,783,['c'],1,left,['1'],6,166,[0.02519195],90,47,medium,plus,dotcolour,alfa,,,125,18,M,R,
466,88,4,11,3,36,44,700,['n'],1,right,['1'],6,156,[-0.11756613],100,44,hard,plus,dotcolour,alfa,,,125,18,M,R,
467,89,5,11,3,33,47,634,['n'],1,right,['2'],5,286,[-0.10417845],100,47,medium,plus,dotcolour,alfa,,,125,18,M,R,
468,90,6,11,3,47,33,617,['c'],1,left,['1'],6,123,[0.03905692],98,47,medium,plus,dotcolour,alfa,,,125,18,M,R,
469,91,7,11,3,53,27,667,['c'],1,left,['1'],6,148,[0.07805374],100,53,easy,plus,dotcolour,alfa,,,125,18,M,R,
470,92,8,11,3,47,33,599,['c'],1,left,['1'],6,120,[-0.0082718],30,47,medium,plus,dotcolour,alfa,,,125,18,M,R,
471,93,9,11,3,36,44,567,['n'],1,right,['1'],6,174,[-0.18352912],100,44,hard,plus,dotcolour,alfa,,,125,18,M,R,
472,94,10,11,3,36,44,934,['c'],0,right,['2'],5,170,[0.13281055],100,44,hard,plus,dotcolour,alfa,,,125,18,M,R,
473,95,11,11,3,47,33,567,['c'],1,left,['2'],5,214,[0.03627213],94,47,medium,plus,dotcolour,alfa,,,125,18,M,R,
474,96,12,11,3,53,27,1150,['c'],1,left,['1'],6,178,[0.08778821],100,53,easy,plus,dotcolour,alfa,,,125,18,M,R,
475,97,13,11,3,47,33,633,['c'],1,left,['1'],6,138,[0.15490685],100,47,medium,plus,dotcolour,alfa,,,125,18,M,R,
476,98,14,11,3,53,27,566,['c'],1,left,['1'],6,151,[0.09617166],100,53,easy,plus,dotcolour,alfa,,,125,18,M,R,
477,99,15,11,3,47,33,901,['c'],1,left,['1'],6,158,[0.06146827],100,47,medium,plus,dotcolour,alfa,,,125,18,M,R,
478,100,16,11,3,33,47,567,['n'],1,right,['1'],6,258,[-0.10145273],100,47,medium,plus,dotcolour,alfa,,,125,18,M,R,
479,101,17,11,3,27,53,466,['n'],1,right,['1'],6,142,[-0.12048149],100,53,easy,plus,dotcolour,alfa,,,125,18,M,R,
480,102,18,11,3,27,53,650,['n'],1,right,['1'],6,144,[-0.09054345],100,53,easy,plus,dotcolour,alfa,,,125,18,M,R,
481,103,19,11,3,44,36,833,['c'],1,left,['1'],6,266,[-0.03777338],7,44,hard,plus,dotcolour,alfa,,,125,18,M,R,
482,104,20,11,3,36,44,1550,['n'],1,right,['2'],5,155,[-0.16510665],100,44,hard,plus,dotcolour,alfa,,,125,18,M,R,
483,105,21,11,3,27,53,533,['n'],1,right,['2'],5,105,[-0.05822489],100,53,easy,plus,dotcolour,alfa,,,125,18,M,R,
484,106,22,11,3,33,47,683,['n'],1,right,['2'],5,131,[-0.13092437],100,47,medium,plus,dotcolour,alfa,,,125,18,M,R,
485,107,23,11,3,27,53,651,['n'],1,right,['1'],6,165,[-0.10310392],100,53,easy,plus,dotcolour,alfa,,,125,18,M,R,
486,108,24,11,3,36,44,600,['n'],1,right,['1'],6,512,[-0.14361746],100,44,hard,plus,dotcolour,alfa,,,125,18,M,R,
487,109,25,11,3,33,47,518,['n'],1,right,['1'],6,144,[-0.042662],98,47,medium,plus,dotcolour,alfa,,,125,18,M,R,
488,110,26,11,3,27,53,5883,['n'],1,right,['1'],6,4888,[-0.74891147],100,53,easy,plus,dotcolour,alfa,,,125,18,M,R,
489,111,27,11,3,53,27,4417,['n'],0,left,['8'],3,859,[0.08598773],3,53,easy,plus,dotcolour,alfa,,,125,18,M,R,
490,112,28,11,3,33,47,1200,['n'],1,right,['1'],6,298,[-0.14729361],100,47,medium,plus,dotcolour,alfa,,,125,18,M,R,
491,113,29,11,3,44,36,1100,['n'],0,left,['1'],6,219,[-0.05594679],99,44,hard,plus,dotcolour,alfa,,,125,18,M,R,
492,114,30,11,3,36,44,817,['n'],1,right,['1'],6,1131,[-0.25377099],100,44,hard,plus,dotcolour,alfa,,,125,18,M,R,
493,115,31,11,3,44,36,3534,['n'],0,left,['8'],3,346,[-0.06748114],98,44,hard,plus,dotcolour,alfa,,,125,18,M,R,
494,116,32,11,3,53,27,2417,['c'],1,left,['1'],6,212,[0.1715536],100,53,easy,plus,dotcolour,alfa,,,125,18,M,R,
495,117,33,11,3,33,47,768,['n'],1,right,['9'],2,6855,[-0.56602066],100,47,medium,plus,dotcolour,alfa,,,125,18,M,R,
496,118,34,11,3,33,47,850,['n'],1,right,['1'],6,242,[-0.13670691],100,47,medium,plus,dotcolour,alfa,,,125,18,M,R,
497,119,35,11,3,53,27,967,['c'],1,left,['2'],5,211,[0.18706413],100,53,easy,plus,dotcolour,alfa,,,125,18,M,R,
498,120,36,11,3,44,36,1050,['n'],0,left,['2'],5,289,[-0.07165361],99,44,hard,plus,dotcolour,alfa,,,125,18,M,R,
499,121,37,11,3,27,53,567,['n'],1,right,['1'],6,168,[-0.09007389],100,53,easy,plus,dotcolour,alfa,,,125,18,M,R,
500,122,38,11,3,44,36,467,['n'],0,left,['1'],6,200,[-0.11742904],100,44,hard,plus,dotcolour,alfa,,,125,18,M,R,
501,123,39,11,3,36,44,516,['n'],1,right,['1'],6,133,[-0.05193496],99,44,hard,plus,dotcolour,alfa,,,125,18,M,R,
502,124,40,11,3,44,36,832,['c'],1,left,['2'],5,152,[0.0836016],100,44,hard,plus,dotcolour,alfa,,,125,18,M,R,
503,125,41,11,3,27,53,566,['n'],1,right,['1'],6,196,[-0.07239039],100,53,easy,plus,dotcolour,alfa,,,125,18,M,R,
504,0,0,12,4,27,53,668,['n'],1,right,['1'],6,151,[-0.10637965],92,53,easy,minus,dotcolour,alfa,,,125,18,M,R,
505,1,1,12,4,36,44,834,['c'],0,right,['1'],6,169,[0.09402708],89,44,hard,minus,dotcolour,alfa,,,125,18,M,R,
506,2,2,12,4,36,44,483,['n'],1,right,['1'],6,136,[-0.06773972],84,44,hard,minus,dotcolour,alfa,,,125,18,M,R,
507,3,3,12,4,36,44,384,['n'],1,right,['1'],6,125,[-0.11844137],95,44,hard,minus,dotcolour,alfa,,,125,18,M,R,
508,4,4,12,4,47,33,767,['c'],1,left,['1'],6,154,[0.14279013],96,47,medium,minus,dotcolour,alfa,,,125,18,M,R,
509,5,5,12,4,27,53,516,['n'],1,right,['1'],6,121,[-0.09188614],92,53,easy,minus,dotcolour,alfa,,,125,18,M,R,
510,6,6,12,4,53,27,567,['c'],1,left,['1'],6,127,[0.08598349],90,53,easy,minus,dotcolour,alfa,,,125,18,M,R,
511,7,7,12,4,33,47,500,['n'],1,right,['1'],6,143,[-0.07931854],87,47,medium,minus,dotcolour,alfa,,,125,18,M,R,
512,8,8,12,4,27,53,683,['n'],1,right,['1'],6,167,[-0.05708621],78,53,easy,minus,dotcolour,alfa,,,125,18,M,R,
513,9,9,12,4,44,36,884,['c'],1,left,['1'],6,134,[0.04723286],76,44,hard,minus,dotcolour,alfa,,,125,18,M,R,
514,10,10,12,4,53,27,483,['n'],0,left,['0'],1,1215,[0.02504179],45,53,easy,minus,dotcolour,alfa,,,125,18,M,R,
515,11,11,12,4,27,53,800,['n'],1,right,['1'],6,144,[-0.08158359],87,53,easy,minus,dotcolour,alfa,,,125,18,M,R,
516,12,12,12,4,53,27,900,['c'],1,left,['2'],5,167,[0.09100761],88,53,easy,minus,dotcolour,alfa,,,125,18,M,R,
517,13,13,12,4,47,33,583,['c'],1,left,['1'],6,154,[0.11135272],93,47,medium,minus,dotcolour,alfa,,,125,18,M,R,
518,14,14,12,4,27,53,701,['n'],1,right,['1'],6,202,[-0.12872527],93,53,easy,minus,dotcolour,alfa,,,125,18,M,R,
519,15,15,12,4,44,36,850,['c'],1,left,['2'],5,161,[0.11662525],93,44,hard,minus,dotcolour,alfa,,,125,18,M,R,
520,16,16,12,4,36,44,1700,['n'],1,right,['2'],5,624,[-0.02418622],57,44,hard,minus,dotcolour,alfa,,,125,18,M,R,
521,17,17,12,4,53,27,751,['c'],1,left,['1'],6,145,[0.10485339],92,53,easy,minus,dotcolour,alfa,,,125,18,M,R,
522,18,18,12,4,47,33,1316,['c'],1,left,['2'],5,392,[0.09357126],79,47,medium,minus,dotcolour,alfa,,,125,18,M,R,
523,19,19,12,4,44,36,1117,['n'],0,left,['2'],5,117,[-0.10937735],95,44,hard,minus,dotcolour,alfa,,,125,18,M,R,
524,20,20,12,4,47,33,501,['c'],1,left,['1'],6,166,[0.07692013],85,47,medium,minus,dotcolour,alfa,,,125,18,M,R,
525,21,21,12,4,53,27,967,['c'],1,left,['1'],6,177,[0.10811033],91,53,easy,minus,dotcolour,alfa,,,125,18,M,R,
526,22,22,12,4,53,27,550,['c'],1,left,['1'],6,207,[0.11577719],91,53,easy,minus,dotcolour,alfa,,,125,18,M,R,
527,23,23,12,4,36,44,650,['c'],0,right,['1'],6,148,[0.11716257],94,44,hard,minus,dotcolour,alfa,,,125,18,M,R,
528,24,24,12,4,33,47,400,['c'],0,right,['8'],3,1080,[-0.08036074],33,47,medium,minus,dotcolour,alfa,,,125,18,M,R,
529,25,25,12,4,33,47,1117,['n'],1,right,['2'],5,361,[-0.01334628],55,47,medium,minus,dotcolour,alfa,,,125,18,M,R,
530,26,26,12,4,33,47,650,['n'],1,right,['1'],6,202,[-0.09943072],88,47,medium,minus,dotcolour,alfa,,,125,18,M,R,
531,27,27,12,4,36,44,700,['n'],1,right,['2'],5,151,[-0.01346751],58,44,hard,minus,dotcolour,alfa,,,125,18,M,R,
532,28,28,12,4,33,47,533,['n'],1,right,['1'],6,141,[-0.0651484],83,47,medium,minus,dotcolour,alfa,,,125,18,M,R,
533,29,29,12,4,47,33,733,['n'],0,left,['2'],5,731,[-0.00716409],52,47,medium,minus,dotcolour,alfa,,,125,18,M,R,
534,30,30,12,4,33,47,600,['n'],1,right,['2'],5,127,[-0.08989692],91,47,medium,minus,dotcolour,alfa,,,125,18,M,R,
535,31,31,12,4,44,36,750,['n'],0,left,['2'],5,157,[-0.14922081],97,44,hard,minus,dotcolour,alfa,,,125,18,M,R,
536,32,32,12,4,33,47,534,['n'],1,right,['2'],5,186,[-0.06739992],80,47,medium,minus,dotcolour,alfa,,,125,18,M,R,
537,33,33,12,4,53,27,432,['c'],1,left,['1'],6,171,[0.08090616],85,53,easy,minus,dotcolour,alfa,,,125,18,M,R,
538,34,34,12,4,36,44,899,['n'],1,right,['2'],5,329,[-0.1076639],84,44,hard,minus,dotcolour,alfa,,,125,18,M,R,
539,35,35,12,4,47,33,733,['c'],1,left,['1'],6,192,[0.08229658],84,47,medium,minus,dotcolour,alfa,,,125,18,M,R,
540,36,36,12,4,27,53,633,['n'],1,right,['2'],5,599,[-0.04935409],64,53,easy,minus,dotcolour,alfa,,,125,18,M,R,
541,37,37,12,4,27,53,633,['n'],1,right,['1'],6,408,[-0.09706276],80,53,easy,minus,dotcolour,alfa,,,125,18,M,R,
542,38,38,12,4,44,36,967,['c'],1,left,['1'],6,162,[0.0190102],60,44,hard,minus,dotcolour,alfa,,,125,18,M,R,
543,39,39,12,4,47,33,801,['c'],1,left,['1'],6,156,[0.06797002],82,47,medium,minus,dotcolour,alfa,,,125,18,M,R,
544,40,40,12,4,44,36,967,['n'],0,left,['1'],6,240,[0.01770728],42,44,hard,minus,dotcolour,alfa,,,125,18,M,R,
545,41,41,12,4,44,36,850,['c'],1,left,['1'],6,143,[0.10626675],93,44,hard,minus,dotcolour,alfa,,,125,18,M,R,
546,42,0,13,4,44,36,1134,['c'],1,left,['1'],6,331,[0.08332394],79,44,hard,minus,dotcolour,alfa,,,125,18,M,R,
547,43,1,13,4,47,33,900,['n'],0,left,['2'],5,187,[-0.09643693],88,47,medium,minus,dotcolour,alfa,,,125,18,M,R,
548,44,2,13,4,33,47,884,['n'],1,right,['2'],5,154,[-0.13878149],96,47,medium,minus,dotcolour,alfa,,,125,18,M,R,
549,45,3,13,4,53,27,684,['c'],1,left,['2'],5,202,[0.01877571],59,53,easy,minus,dotcolour,alfa,,,125,18,M,R,
550,46,4,13,4,33,47,634,['n'],1,right,['2'],5,202,[-0.1123781],90,47,medium,minus,dotcolour,alfa,,,125,18,M,R,
551,47,5,13,4,33,47,700,['n'],1,right,['2'],5,127,[-0.04488213],76,47,medium,minus,dotcolour,alfa,,,125,18,M,R,
552,48,6,13,4,53,27,734,['c'],1,left,['2'],5,157,[0.09112035],89,53,easy,minus,dotcolour,alfa,,,125,18,M,R,
553,49,7,13,4,27,53,617,['n'],1,right,['2'],5,256,[-0.13878041],92,53,easy,minus,dotcolour,alfa,,,125,18,M,R,
554,50,8,13,4,33,47,584,['n'],1,right,['1'],6,207,[-0.04428556],71,47,medium,minus,dotcolour,alfa,,,125,18,M,R,
555,51,9,13,4,44,36,667,['c'],1,left,['2'],5,237,[0.06782108],78,44,hard,minus,dotcolour,alfa,,,125,18,M,R,
556,52,10,13,4,36,44,718,['n'],1,right,['1'],6,248,[-0.02802084],62,44,hard,minus,dotcolour,alfa,,,125,18,M,R,
557,53,11,13,4,44,36,784,['c'],1,left,['2'],5,161,[0.07724796],85,44,hard,minus,dotcolour,alfa,,,125,18,M,R,
558,54,12,13,4,27,53,683,['n'],1,right,['2'],5,168,[-0.12577155],94,53,easy,minus,dotcolour,alfa,,,125,18,M,R,
559,55,13,13,4,44,36,750,['n'],0,left,['2'],5,189,[-0.15911033],96,44,hard,minus,dotcolour,alfa,,,125,18,M,R,
560,56,14,13,4,53,27,750,['c'],1,left,['1'],6,144,[0.13802691],96,53,easy,minus,dotcolour,alfa,,,125,18,M,R,
561,57,15,13,4,44,36,717,['n'],0,left,['1'],6,55,[-0.05134555],88,44,hard,minus,dotcolour,alfa,,,125,18,M,R,
562,58,16,13,4,47,33,666,['c'],1,left,['1'],6,148,[0.07771703],86,47,medium,minus,dotcolour,alfa,,,125,18,M,R,
563,59,17,13,4,27,53,533,['n'],1,right,['1'],6,114,[-0.10300221],94,53,easy,minus,dotcolour,alfa,,,125,18,M,R,
564,60,18,13,4,27,53,900,['n'],1,right,['1'],6,115,[-0.12842458],97,53,easy,minus,dotcolour,alfa,,,125,18,M,R,
565,61,19,13,4,53,27,650,['c'],1,left,['1'],6,157,[0.05983692],80,53,easy,minus,dotcolour,alfa,,,125,18,M,R,
566,62,20,13,4,36,44,1000,['n'],1,right,['1'],6,136,[0.00683181],46,44,hard,minus,dotcolour,alfa,,,125,18,M,R,
567,63,21,13,4,53,27,767,['c'],1,left,['1'],6,125,[0.06627342],84,53,easy,minus,dotcolour,alfa,,,125,18,M,R,
568,64,22,13,4,47,33,617,['n'],0,left,['1'],6,88,[-0.12118102],98,47,medium,minus,dotcolour,alfa,,,125,18,M,R,
569,65,23,13,4,36,44,767,['c'],0,right,['2'],5,120,[0.0809109],89,44,hard,minus,dotcolour,alfa,,,125,18,M,R,
570,66,24,13,4,47,33,651,['c'],1,left,['2'],5,147,[0.04667773],75,47,medium,minus,dotcolour,alfa,,,125,18,M,R,
571,67,25,13,4,53,27,550,['c'],1,left,['2'],5,120,[0.06598965],85,53,easy,minus,dotcolour,alfa,,,125,18,M,R,
572,68,26,13,4,47,33,800,['n'],0,left,['2'],5,140,[-0.04376977],74,47,medium,minus,dotcolour,alfa,,,125,18,M,R,
573,69,27,13,4,33,47,635,['n'],1,right,['1'],6,199,[-0.15070141],95,47,medium,minus,dotcolour,alfa,,,125,18,M,R,
574,70,28,13,4,36,44,816,['c'],0,right,['2'],5,272,[0.05521156],72,44,hard,minus,dotcolour,alfa,,,125,18,M,R,
575,71,29,13,4,33,47,534,['n'],1,right,['2'],5,136,[-0.09907386],92,47,medium,minus,dotcolour,alfa,,,125,18,M,R,
576,72,30,13,4,27,53,717,['n'],1,right,['2'],5,151,[-0.09808852],91,53,easy,minus,dotcolour,alfa,,,125,18,M,R,
577,73,31,13,4,33,47,550,['n'],1,right,['2'],5,148,[-0.07662798],86,47,medium,minus,dotcolour,alfa,,,125,18,M,R,
578,74,32,13,4,27,53,483,['n'],1,right,['2'],5,156,[-0.08912561],88,53,easy,minus,dotcolour,alfa,,,125,18,M,R,
579,75,33,13,4,47,33,583,['n'],0,left,['1'],6,216,[-0.07554368],81,47,medium,minus,dotcolour,alfa,,,125,18,M,R,
580,76,34,13,4,47,33,666,['n'],0,left,['2'],5,135,[-0.12483466],96,47,medium,minus,dotcolour,alfa,,,125,18,M,R,
581,77,35,13,4,36,44,600,['n'],1,right,['2'],5,162,[-0.07359841],84,44,hard,minus,dotcolour,alfa,,,125,18,M,R,
582,78,36,13,4,36,44,868,['n'],1,right,['2'],5,146,[-0.06451111],82,44,hard,minus,dotcolour,alfa,,,125,18,M,R,
583,79,37,13,4,44,36,651,['n'],0,left,['2'],5,131,[-0.01505539],59,44,hard,minus,dotcolour,alfa,,,125,18,M,R,
584,80,38,13,4,36,44,800,['c'],0,right,['2'],5,151,[0.03553447],69,44,hard,minus,dotcolour,alfa,,,125,18,M,R,
585,81,39,13,4,27,53,584,['n'],1,right,['2'],5,203,[-0.02237484],61,53,easy,minus,dotcolour,alfa,,,125,18,M,R,
586,82,40,13,4,53,27,3017,['n'],0,left,['3'],4,380,[0.01247061],45,53,easy,minus,dotcolour,alfa,,,125,18,M,R,
587,83,41,13,4,44,36,717,['c'],1,left,['1'],6,138,[0.11362969],94,44,hard,minus,dotcolour,alfa,,,125,18,M,R,
588,84,0,14,4,53,27,1117,['c'],1,left,['1'],6,137,[0.08020853],88,53,easy,minus,dotcolour,alfa,,,125,18,M,R,
589,85,1,14,4,36,44,517,['n'],1,right,['1'],6,136,[-0.06279296],82,44,hard,minus,dotcolour,alfa,,,125,18,M,R,
590,86,2,14,4,44,36,450,['c'],1,left,['1'],6,146,[0.07429517],85,44,hard,minus,dotcolour,alfa,,,125,18,M,R,
591,87,3,14,4,36,44,833,['n'],1,right,['1'],6,252,[-0.03357103],65,44,hard,minus,dotcolour,alfa,,,125,18,M,R,
592,88,4,14,4,36,44,517,['n'],1,right,['2'],5,135,[-0.08865338],90,44,hard,minus,dotcolour,alfa,,,125,18,M,R,
593,89,5,14,4,53,27,683,['c'],1,left,['1'],6,135,[0.08188169],88,53,easy,minus,dotcolour,alfa,,,125,18,M,R,
594,90,6,14,4,33,47,717,['n'],1,right,['2'],5,159,[-0.05254736],77,47,medium,minus,dotcolour,alfa,,,125,18,M,R,
595,91,7,14,4,44,36,902,['n'],0,left,['2'],5,166,[-0.1449248],96,44,hard,minus,dotcolour,alfa,,,125,18,M,R,
596,92,8,14,4,47,33,950,['c'],1,left,['1'],6,178,[0.10385438],90,47,medium,minus,dotcolour,alfa,,,125,18,M,R,
597,93,9,14,4,53,27,534,['c'],1,left,['1'],6,143,[0.11166481],93,53,easy,minus,dotcolour,alfa,,,125,18,M,R,
598,94,10,14,4,44,36,1183,['c'],1,left,['1'],6,139,[0.09656008],91,44,hard,minus,dotcolour,alfa,,,125,18,M,R,
599,95,11,14,4,33,47,600,['n'],1,right,['1'],6,144,[-0.00468699],53,47,medium,minus,dotcolour,alfa,,,125,18,M,R,
600,96,12,14,4,33,47,584,['c'],0,right,['1'],6,147,[0.04405941],74,47,medium,minus,dotcolour,alfa,,,125,18,M,R,
601,97,13,14,4,47,33,1016,['n'],0,left,['2'],5,302,[-0.0639643],74,47,medium,minus,dotcolour,alfa,,,125,18,M,R,
602,98,14,14,4,27,53,933,['n'],1,right,['1'],6,238,[-0.10816569],88,53,easy,minus,dotcolour,alfa,,,125,18,M,R,
603,99,15,14,4,33,47,1050,['n'],1,right,['1'],6,532,[-0.10793561],79,47,medium,minus,dotcolour,alfa,,,125,18,M,R,
604,100,16,14,4,44,36,5183,['n'],0,left,['8'],3,1216,[-0.17520368],81,44,hard,minus,dotcolour,alfa,,,125,18,M,R,
605,101,17,14,4,27,53,567,['n'],1,right,['1'],6,122,[-0.06766329],85,53,easy,minus,dotcolour,alfa,,,125,18,M,R,
606,102,18,14,4,47,33,1451,['c'],1,left,['2'],5,493,[0.09328029],77,47,medium,minus,dotcolour,alfa,,,125,18,M,R,
607,103,19,14,4,36,44,601,['n'],1,right,['2'],5,218,[-0.02414331],61,44,hard,minus,dotcolour,alfa,,,125,18,M,R,
608,104,20,14,4,53,27,717,['c'],1,left,['2'],5,142,[0.07902185],87,53,easy,minus,dotcolour,alfa,,,125,18,M,R,
609,105,21,14,4,33,47,699,['n'],1,right,['2'],5,133,[-0.05947374],81,47,medium,minus,dotcolour,alfa,,,125,18,M,R,
610,106,22,14,4,53,27,800,['c'],1,left,['2'],5,113,[0.10344927],94,53,easy,minus,dotcolour,alfa,,,125,18,M,R,
611,107,23,14,4,27,53,633,['n'],1,right,['1'],6,117,[-0.05318319],80,53,easy,minus,dotcolour,alfa,,,125,18,M,R,
612,108,24,14,4,36,44,1883,['n'],1,right,['3'],4,158,[-0.15316687],97,44,hard,minus,dotcolour,alfa,,,125,18,M,R,
613,109,25,14,4,53,27,650,['c'],1,left,['1'],6,183,[0.12252381],93,53,easy,minus,dotcolour,alfa,,,125,18,M,R,
614,110,26,14,4,27,53,750,['c'],0,right,['8'],3,1227,[-0.16695965],20,53,easy,minus,dotcolour,alfa,,,125,18,M,R,
615,111,27,14,4,44,36,1300,['n'],0,left,['3'],4,431,[0.05820174],31,44,hard,minus,dotcolour,alfa,,,125,18,M,R,
616,112,28,14,4,44,36,1250,['c'],1,left,['2'],5,197,[0.0579332],76,44,hard,minus,dotcolour,alfa,,,125,18,M,R,
617,113,29,14,4,53,27,733,['c'],1,left,['2'],5,145,[0.06559363],82,53,easy,minus,dotcolour,alfa,,,125,18,M,R,
618,114,30,14,4,33,47,818,['n'],1,right,['1'],6,131,[-0.02233945],64,47,medium,minus,dotcolour,alfa,,,125,18,M,R,
619,115,31,14,4,27,53,700,['n'],1,right,['1'],6,115,[-0.08100985],90,53,easy,minus,dotcolour,alfa,,,125,18,M,R,
620,116,32,14,4,47,33,1033,['c'],1,left,['2'],5,159,[0.13665964],96,47,medium,minus,dotcolour,alfa,,,125,18,M,R,
621,117,33,14,4,47,33,1168,['c'],1,left,['2'],5,139,[0.0671808],84,47,medium,minus,dotcolour,alfa,,,125,18,M,R,
622,118,34,14,4,36,44,882,['n'],1,right,['2'],5,132,[-0.11419988],94,44,hard,minus,dotcolour,alfa,,,125,18,M,R,
623,119,35,14,4,47,33,918,['n'],0,left,['9'],2,1171,[0.07670014],35,47,medium,minus,dotcolour,alfa,,,125,18,M,R,
624,120,36,14,4,33,47,2167,['n'],1,right,['2'],5,198,[-0.12221507],92,47,medium,minus,dotcolour,alfa,,,125,18,M,R,
625,121,37,14,4,36,44,1216,['n'],1,right,['3'],4,239,[-0.09382137],85,44,hard,minus,dotcolour,alfa,,,125,18,M,R,
626,122,38,14,4,44,36,734,['c'],1,left,['2'],5,329,[0.04058613],65,44,hard,minus,dotcolour,alfa,,,125,18,M,R,
627,123,39,14,4,27,53,933,['n'],1,right,['1'],6,160,[-0.08612656],87,53,easy,minus,dotcolour,alfa,,,125,18,M,R,
628,124,40,14,4,27,53,566,['n'],1,right,['2'],5,196,[-0.12480073],93,53,easy,minus,dotcolour,alfa,,,125,18,M,R,
629,125,41,14,4,47,33,1116,['c'],1,left,['2'],5,280,[0.14104159],92,47,medium,minus,dotcolour,alfa,,,125,18,M,R,
630,0,0,15,5,47,33,701,['c'],1,left,['2'],5,125,[0.09588483],100,47,medium,plus,dotcolour,alfa,,,125,18,M,R,
631,1,1,15,5,44,36,666,['c'],1,left,['2'],5,183,[0.08436009],100,44,hard,plus,dotcolour,alfa,,,125,18,M,R,
632,2,2,15,5,27,53,650,['n'],1,right,['2'],5,127,[-0.06209159],100,53,easy,plus,dotcolour,alfa,,,125,18,M,R,
633,3,3,15,5,53,27,616,['c'],1,left,['1'],6,155,[0.1128139],100,53,easy,plus,dotcolour,alfa,,,125,18,M,R,
634,4,4,15,5,47,33,1001,['n'],0,left,['1'],6,150,[-0.07101696],100,47,medium,plus,dotcolour,alfa,,,125,18,M,R,
635,5,5,15,5,33,47,934,['c'],0,right,['2'],5,236,[0.01390607],74,47,medium,plus,dotcolour,alfa,,,125,18,M,R,
636,6,6,15,5,47,33,733,['c'],1,left,['2'],5,310,[0.11295585],100,47,medium,plus,dotcolour,alfa,,,125,18,M,R,
637,7,7,15,5,44,36,1033,['n'],0,left,['2'],5,154,[-0.06266274],100,44,hard,plus,dotcolour,alfa,,,125,18,M,R,
638,8,8,15,5,53,27,750,['c'],1,left,['2'],5,335,[0.14031006],100,53,easy,plus,dotcolour,alfa,,,125,18,M,R,
639,9,9,15,5,33,47,833,['n'],1,right,['9'],2,1386,[-0.10267707],96,47,medium,plus,dotcolour,alfa,,,125,18,M,R,
640,10,10,15,5,47,33,683,['c'],1,left,['1'],6,201,[0.04733058],98,47,medium,plus,dotcolour,alfa,,,125,18,M,R,
641,11,11,15,5,36,44,766,['c'],0,right,['1'],6,146,[0.00860885],69,44,hard,plus,dotcolour,alfa,,,125,18,M,R,
642,12,12,15,5,36,44,482,['n'],1,right,['1'],6,179,[-0.09560949],100,44,hard,plus,dotcolour,alfa,,,125,18,M,R,
643,13,13,15,5,53,27,1250,['c'],1,left,['2'],5,242,[0.13877937],100,53,easy,plus,dotcolour,alfa,,,125,18,M,R,
644,14,14,15,5,27,53,717,['n'],1,right,['2'],5,365,[-0.04129741],92,53,easy,plus,dotcolour,alfa,,,125,18,M,R,
645,15,15,15,5,27,53,1367,['n'],1,right,['1'],6,225,[-0.0917041],100,53,easy,plus,dotcolour,alfa,,,125,18,M,R,
646,16,16,15,5,33,47,684,['n'],1,right,['1'],6,150,[-0.03000895],94,47,medium,plus,dotcolour,alfa,,,125,18,M,R,
647,17,17,15,5,33,47,534,['n'],1,right,['1'],6,84,[-0.11712765],100,47,medium,plus,dotcolour,alfa,,,125,18,M,R,
648,18,18,15,5,27,53,550,['n'],1,right,['1'],6,92,[-0.09541751],100,53,easy,plus,dotcolour,alfa,,,125,18,M,R,
649,19,19,15,5,47,33,599,['c'],1,left,['1'],6,169,[0.07721222],100,47,medium,plus,dotcolour,alfa,,,125,18,M,R,
650,20,20,15,5,27,53,516,['n'],1,right,['1'],6,55,[-0.06243684],100,53,easy,plus,dotcolour,alfa,,,125,18,M,R,
651,21,21,15,5,44,36,950,['n'],0,left,['2'],5,153,[-0.03208366],95,44,hard,plus,dotcolour,alfa,,,125,18,M,R,
652,22,22,15,5,36,44,582,['n'],1,right,['2'],5,157,[-0.02779002],93,44,hard,plus,dotcolour,alfa,,,125,18,M,R,
653,23,23,15,5,33,47,483,['n'],1,right,['2'],5,108,[-0.05070689],100,47,medium,plus,dotcolour,alfa,,,125,18,M,R,
654,24,24,15,5,36,44,701,['n'],1,right,['2'],5,133,[-0.04428961],99,44,hard,plus,dotcolour,alfa,,,125,18,M,R,
655,25,25,15,5,27,53,567,['n'],1,right,['2'],5,74,[-0.05734338],100,53,easy,plus,dotcolour,alfa,,,125,18,M,R,
656,26,26,15,5,36,44,599,['n'],1,right,['1'],6,128,[-0.08127488],100,44,hard,plus,dotcolour,alfa,,,125,18,M,R,
657,27,27,15,5,44,36,682,['n'],0,left,['1'],6,113,[-0.06369436],100,44,hard,plus,dotcolour,alfa,,,125,18,M,R,
658,28,28,15,5,47,33,1134,['c'],1,left,['2'],5,352,[0.20565075],100,47,medium,plus,dotcolour,alfa,,,125,18,M,R,
659,29,29,15,5,44,36,500,['n'],0,left,['1'],6,143,[-0.03829046],97,44,hard,plus,dotcolour,alfa,,,125,18,M,R,
660,30,30,15,5,44,36,1150,['c'],1,left,['2'],5,109,[0.10222373],100,44,hard,plus,dotcolour,alfa,,,125,18,M,R,
661,31,31,15,5,53,27,1267,['c'],1,left,['2'],5,143,[0.07363347],100,53,easy,plus,dotcolour,alfa,,,125,18,M,R,
662,32,32,15,5,36,44,1151,['n'],1,right,['2'],5,77,[-0.07887833],100,44,hard,plus,dotcolour,alfa,,,125,18,M,R,
663,33,33,15,5,33,47,1117,['n'],1,right,['1'],6,262,[0.00409142],43,47,medium,plus,dotcolour,alfa,,,125,18,M,R,
664,34,34,15,5,53,27,600,['c'],1,left,['1'],6,181,[0.1480614],100,53,easy,plus,dotcolour,alfa,,,125,18,M,R,
665,35,35,15,5,27,53,699,['n'],1,right,['1'],6,178,[-0.08018789],100,53,easy,plus,dotcolour,alfa,,,125,18,M,R,
666,36,36,15,5,53,27,618,['c'],1,left,['1'],6,124,[0.11821438],100,53,easy,plus,dotcolour,alfa,,,125,18,M,R,
667,37,37,15,5,53,27,517,['c'],1,left,['1'],6,139,[0.13494053],100,53,easy,plus,dotcolour,alfa,,,125,18,M,R,
668,38,38,15,5,36,44,1034,['c'],0,right,['2'],5,182,[0.09769372],100,44,hard,plus,dotcolour,alfa,,,125,18,M,R,
669,39,39,15,5,33,47,750,['n'],1,right,['2'],5,434,[-0.12464542],100,47,medium,plus,dotcolour,alfa,,,125,18,M,R,
670,40,40,15,5,44,36,618,['c'],1,left,['1'],6,1217,[0.10040239],96,44,hard,plus,dotcolour,alfa,,,125,18,M,R,
671,41,41,15,5,47,33,633,['c'],1,left,['1'],6,264,[0.13014734],100,47,medium,plus,dotcolour,alfa,,,125,18,M,R,
672,42,0,16,5,33,47,550,['n'],1,right,['1'],6,122,[-0.07442267],100,47,medium,plus,dotcolour,alfa,,,125,18,M,R,
673,43,1,16,5,36,44,484,['n'],1,right,['1'],6,164,[-0.07767028],100,44,hard,plus,dotcolour,alfa,,,125,18,M,R,
674,44,2,16,5,27,53,567,['n'],1,right,['1'],6,112,[-0.06251041],100,53,easy,plus,dotcolour,alfa,,,125,18,M,R,
675,45,3,16,5,44,36,684,['n'],0,left,['2'],5,137,[-0.1036117],100,44,hard,plus,dotcolour,alfa,,,125,18,M,R,
676,46,4,16,5,47,33,484,['n'],0,left,['2'],5,178,[-0.04566443],98,47,medium,plus,dotcolour,alfa,,,125,18,M,R,
677,47,5,16,5,33,47,717,['n'],1,right,['2'],5,143,[-0.11731531],100,47,medium,plus,dotcolour,alfa,,,125,18,M,R,
678,48,6,16,5,33,47,383,['n'],1,right,['2'],5,187,[-0.09995077],100,47,medium,plus,dotcolour,alfa,,,125,18,M,R,
679,49,7,16,5,53,27,533,['c'],1,left,['1'],6,184,[0.1195118],100,53,easy,plus,dotcolour,alfa,,,125,18,M,R,
680,50,8,16,5,36,44,917,['n'],1,right,['1'],6,189,[-0.08809363],100,44,hard,plus,dotcolour,alfa,,,125,18,M,R,
681,51,9,16,5,53,27,1183,['c'],1,left,['1'],6,111,[0.06656567],100,53,easy,plus,dotcolour,alfa,,,125,18,M,R,
682,52,10,16,5,47,33,584,['c'],1,left,['1'],6,117,[0.09052765],100,47,medium,plus,dotcolour,alfa,,,125,18,M,R,
683,53,11,16,5,53,27,483,['c'],1,left,['1'],6,134,[0.11633129],100,53,easy,plus,dotcolour,alfa,,,125,18,M,R,
684,54,12,16,5,44,36,1200,['c'],1,left,['2'],5,122,[0.07461036],100,44,hard,plus,dotcolour,alfa,,,125,18,M,R,
685,55,13,16,5,47,33,1033,['c'],1,left,['2'],5,141,[0.11153689],100,47,medium,plus,dotcolour,alfa,,,125,18,M,R,
686,56,14,16,5,47,33,833,['c'],1,left,['2'],5,127,[0.05984639],100,47,medium,plus,dotcolour,alfa,,,125,18,M,R,
687,57,15,16,5,36,44,733,['n'],1,right,['1'],6,110,[-0.10018863],100,44,hard,plus,dotcolour,alfa,,,125,18,M,R,
688,58,16,16,5,27,53,683,['n'],1,right,['1'],6,112,[-0.14322522],100,53,easy,plus,dotcolour,alfa,,,125,18,M,R,
689,59,17,16,5,36,44,916,['n'],1,right,['1'],6,159,[-0.10072937],100,44,hard,plus,dotcolour,alfa,,,125,18,M,R,
690,60,18,16,5,47,33,683,['c'],1,left,['2'],5,71,[0.11338289],100,47,medium,plus,dotcolour,alfa,,,125,18,M,R,
691,61,19,16,5,27,53,633,['n'],1,right,['1'],6,124,[-0.0543563],100,53,easy,plus,dotcolour,alfa,,,125,18,M,R,
692,62,20,16,5,53,27,834,['c'],1,left,['2'],5,343,[0.11731596],100,53,easy,plus,dotcolour,alfa,,,125,18,M,R,
693,63,21,16,5,27,53,500,['n'],1,right,['1'],6,542,[-0.10811797],99,53,easy,plus,dotcolour,alfa,,,125,18,M,R,
694,64,22,16,5,27,53,567,['n'],1,right,['1'],6,171,[-0.00311787],57,53,easy,plus,dotcolour,alfa,,,125,18,M,R,
695,65,23,16,5,33,47,600,['n'],1,right,['1'],6,198,[-0.11780307],100,47,medium,plus,dotcolour,alfa,,,125,18,M,R,
696,66,24,16,5,44,36,1267,['n'],0,left,['1'],6,212,[-0.07316257],100,44,hard,plus,dotcolour,alfa,,,125,18,M,R,
697,67,25,16,5,33,47,484,['n'],1,right,['1'],6,130,[-0.02496215],92,47,medium,plus,dotcolour,alfa,,,125,18,M,R,
698,68,26,16,5,36,44,717,['n'],1,right,['1'],6,145,[-0.04308781],98,44,hard,plus,dotcolour,alfa,,,125,18,M,R,
699,69,27,16,5,27,53,617,['n'],1,right,['1'],6,148,[-0.04311707],98,53,easy,plus,dotcolour,alfa,,,125,18,M,R,
700,70,28,16,5,44,36,1133,['n'],0,left,['2'],5,290,[-0.10563379],100,44,hard,plus,dotcolour,alfa,,,125,18,M,R,
701,71,29,16,5,27,53,584,['n'],1,right,['2'],5,127,[-0.06343093],100,53,easy,plus,dotcolour,alfa,,,125,18,M,R,
702,72,30,16,5,44,36,817,['n'],0,left,['2'],5,155,[-0.06427664],100,44,hard,plus,dotcolour,alfa,,,125,18,M,R,
703,73,31,16,5,53,27,850,['c'],1,left,['1'],6,213,[0.16730636],100,53,easy,plus,dotcolour,alfa,,,125,18,M,R,
704,74,32,16,5,33,47,950,['n'],1,right,['2'],5,151,[-0.10716118],100,47,medium,plus,dotcolour,alfa,,,125,18,M,R,
705,75,33,16,5,47,33,800,['c'],1,left,['1'],6,146,[0.04821914],99,47,medium,plus,dotcolour,alfa,,,125,18,M,R,
706,76,34,16,5,53,27,617,['c'],1,left,['2'],5,165,[0.16258809],100,53,easy,plus,dotcolour,alfa,,,125,18,M,R,
707,77,35,16,5,44,36,849,['n'],0,left,['8'],3,1247,[-0.08873407],95,44,hard,plus,dotcolour,alfa,,,125,18,M,R,
708,78,36,16,5,47,33,801,['n'],0,left,['2'],5,526,[-0.0164825],69,47,medium,plus,dotcolour,alfa,,,125,18,M,R,
709,79,37,16,5,53,27,583,['c'],1,left,['1'],6,138,[0.10266117],100,53,easy,plus,dotcolour,alfa,,,125,18,M,R,
710,80,38,16,5,33,47,651,['n'],1,right,['2'],5,116,[-0.14784828],100,47,medium,plus,dotcolour,alfa,,,125,18,M,R,
711,81,39,16,5,36,44,450,['n'],1,right,['2'],5,95,[-0.08087884],100,44,hard,plus,dotcolour,alfa,,,125,18,M,R,
712,82,40,16,5,36,44,500,['n'],1,right,['2'],5,136,[-0.03609636],97,44,hard,plus,dotcolour,alfa,,,125,18,M,R,
713,83,41,16,5,44,36,917,['c'],1,left,['2'],5,183,[0.08368203],100,44,hard,plus,dotcolour,alfa,,,125,18,M,R,
714,84,0,17,5,44,36,651,['c'],1,left,['1'],6,252,[0.10550972],100,44,hard,plus,dotcolour,alfa,,,125,18,M,R,
715,85,1,17,5,44,36,567,['c'],1,left,['1'],6,180,[0.01328848],76,44,hard,plus,dotcolour,alfa,,,125,18,M,R,
716,86,2,17,5,27,53,484,['n'],1,right,['1'],6,218,[-0.0942571],100,53,easy,plus,dotcolour,alfa,,,125,18,M,R,
717,87,3,17,5,27,53,485,['n'],1,right,['2'],5,192,[-0.06069634],99,53,easy,plus,dotcolour,alfa,,,125,18,M,R,
718,88,4,17,5,33,47,467,['n'],1,right,['2'],5,103,[-0.05540091],100,47,medium,plus,dotcolour,alfa,,,125,18,M,R,
719,89,5,17,5,36,44,500,['n'],1,right,['2'],5,120,[-0.08724683],100,44,hard,plus,dotcolour,alfa,,,125,18,M,R,
720,90,6,17,5,53,27,567,['n'],0,left,['2'],5,334,[-0.03775009],91,53,easy,plus,dotcolour,alfa,,,125,18,M,R,
721,91,7,17,5,36,44,618,['n'],1,right,['2'],5,498,[-0.10893988],100,44,hard,plus,dotcolour,alfa,,,125,18,M,R,
722,92,8,17,5,27,53,584,['n'],1,right,['2'],5,144,[-0.0510046],99,53,easy,plus,dotcolour,alfa,,,125,18,M,R,
723,93,9,17,5,44,36,816,['c'],1,left,['1'],6,106,[0.07453283],100,44,hard,plus,dotcolour,alfa,,,125,18,M,R,
724,94,10,17,5,36,44,816,['n'],1,right,['2'],5,135,[-0.09677586],100,44,hard,plus,dotcolour,alfa,,,125,18,M,R,
725,95,11,17,5,44,36,533,['c'],1,left,['2'],5,125,[0.0324981],96,44,hard,plus,dotcolour,alfa,,,125,18,M,R,
726,96,12,17,5,36,44,1066,['c'],0,right,['2'],5,127,[-0.03937762],2,44,hard,plus,dotcolour,alfa,,,125,18,M,R,
727,97,13,17,5,47,33,950,['c'],1,left,['2'],5,117,[0.10288673],100,47,medium,plus,dotcolour,alfa,,,125,18,M,R,
728,98,14,17,5,53,27,633,['c'],1,left,['1'],6,120,[0.06436385],100,53,easy,plus,dotcolour,alfa,,,125,18,M,R,
729,99,15,17,5,47,33,733,['c'],1,left,['1'],6,135,[0.10216216],100,47,medium,plus,dotcolour,alfa,,,125,18,M,R,
730,100,16,17,5,53,27,833,['c'],1,left,['1'],6,130,[0.04878882],99,53,easy,plus,dotcolour,alfa,,,125,18,M,R,
731,101,17,17,5,33,47,650,['n'],1,right,['1'],6,108,[-0.1304],100,47,medium,plus,dotcolour,alfa,,,125,18,M,R,
732,102,18,17,5,47,33,832,['n'],0,left,['1'],6,80,[-0.06615073],100,47,medium,plus,dotcolour,alfa,,,125,18,M,R,
733,103,19,17,5,33,47,650,['n'],1,right,['1'],6,84,[-0.07055524],100,47,medium,plus,dotcolour,alfa,,,125,18,M,R,
734,104,20,17,5,44,36,667,['n'],0,left,['1'],6,95,[-0.09458262],100,44,hard,plus,dotcolour,alfa,,,125,18,M,R,
735,105,21,17,5,47,33,650,['c'],1,left,['1'],6,147,[0.07837205],100,47,medium,plus,dotcolour,alfa,,,125,18,M,R,
736,106,22,17,5,47,33,584,['c'],1,left,['1'],6,110,[0.02342259],93,47,medium,plus,dotcolour,alfa,,,125,18,M,R,
737,107,23,17,5,33,47,1334,['c'],0,right,['1'],6,109,[-0.00369435],40,47,medium,plus,dotcolour,alfa,,,125,18,M,R,
738,108,24,17,5,33,47,834,['n'],1,right,['1'],6,73,[-0.07772184],100,47,medium,plus,dotcolour,alfa,,,125,18,M,R,
739,109,25,17,5,53,27,784,['c'],1,left,['1'],6,137,[0.08982562],100,53,easy,plus,dotcolour,alfa,,,125,18,M,R,
740,110,26,17,5,27,53,733,['n'],1,right,['1'],6,143,[-0.07192835],100,53,easy,plus,dotcolour,alfa,,,125,18,M,R,
741,111,27,17,5,44,36,699,['c'],1,left,['1'],6,118,[0.09173387],100,44,hard,plus,dotcolour,alfa,,,125,18,M,R,
742,112,28,17,5,53,27,750,['c'],1,left,['1'],6,109,[0.06151919],100,53,easy,plus,dotcolour,alfa,,,125,18,M,R,
743,113,29,17,5,36,44,684,['n'],1,right,['1'],6,86,[-0.0674208],100,44,hard,plus,dotcolour,alfa,,,125,18,M,R,
744,114,30,17,5,27,53,650,['n'],1,right,['1'],6,114,[-0.08626296],100,53,easy,plus,dotcolour,alfa,,,125,18,M,R,
745,115,31,17,5,47,33,1183,['c'],1,left,['1'],6,143,[0.08095718],100,47,medium,plus,dotcolour,alfa,,,125,18,M,R,
746,116,32,17,5,27,53,984,['c'],0,right,['2'],5,148,[0.13267573],100,53,easy,plus,dotcolour,alfa,,,125,18,M,R,
747,117,33,17,5,44,36,1050,['c'],1,left,['2'],5,317,[0.04291181],94,44,hard,plus,dotcolour,alfa,,,125,18,M,R,
748,118,34,17,5,53,27,700,['c'],1,left,['1'],6,118,[0.08489685],100,53,easy,plus,dotcolour,alfa,,,125,18,M,R,
749,119,35,17,5,53,27,500,['c'],1,left,['1'],6,127,[0.15653801],100,53,easy,plus,dotcolour,alfa,,,125,18,M,R,
750,120,36,17,5,33,47,1534,['n'],1,right,['2'],5,405,[-0.09955741],100,47,medium,plus,dotcolour,alfa,,,125,18,M,R,
751,121,37,17,5,36,44,734,['n'],1,right,['1'],6,113,[-0.02434613],93,44,hard,plus,dotcolour,alfa,,,125,18,M,R,
752,122,38,17,5,27,53,650,['n'],1,right,['1'],6,243,[-0.1551568],100,53,easy,plus,dotcolour,alfa,,,125,18,M,R,
753,123,39,17,5,36,44,583,['n'],1,right,['1'],6,139,[-0.11720146],100,44,hard,plus,dotcolour,alfa,,,125,18,M,R,
754,124,40,17,5,47,33,582,['c'],1,left,['1'],6,120,[0.05835947],100,47,medium,plus,dotcolour,alfa,,,125,18,M,R,
755,125,41,17,5,33,47,766,['n'],1,right,['1'],6,142,[-0.14126223],100,47,medium,plus,dotcolour,alfa,,,125,18,M,R,
,,,,,,,,,,,,,,,,,,,,,1,"de baluwebstippen werden vegen naar gelang het experiment duurde, kan ook aan mijn zicht liggen",125,18,M,R,
,,,,,,,,,,,,,,,,,,,,,2,['d'],125,18,M,R,
,,,,,,,,,,,,,,,,,,,,,3,['g'],125,18,M,R,
,,,,,,,,,,,,,,,,,,,,,5,[],125,18,M,R,
