"withinblocktrial","block","running","dotsLeft","dotsRight","rt","resp","cor","cresp","conf_press","cj","RTconf","ev","fb","diff","task","sub","age","gender","handedness","X","difflevel","condition","manip","response","trial","coh"
2,0,"training",57,23,4.33386580000024,"['c']",1,"left","['8']",4,4.78268019999996,"[0.73740776]",100,57,"shape",51,18,"V","R",NA,"medium","control","alpha",-1,2,"medium"
3,0,"training",49,31,3.13341940000009,"['n']",0,"left","['3']",3,4.55279390000032,"[0.04555839]",41,49,"shape",51,18,"V","R",NA,"hard","control","alpha",1,3,"hard"
4,0,"training",62,18,2.49910199999977,"['c']",1,"left","['8']",4,4.22940279999966,"[0.67810749]",100,62,"shape",51,18,"V","R",NA,"easy","control","alpha",-1,4,"easy"
5,0,"training",23,57,2.84955009999976,"['n']",1,"right","['8']",4,4.35333660000015,"[-0.44916822]",98,57,"shape",51,18,"V","R",NA,"medium","control","alpha",1,5,"medium"
6,0,"training",18,62,1.75007129999995,"['n']",1,"right","['9']",5,0.659761599999911,"[-0.22143365]",99,62,"shape",51,18,"V","R",NA,"easy","control","alpha",1,6,"easy"
7,0,"training",49,31,1.98327549999976,"['c']",1,"left","['8']",4,1.53809140000067,"[0.21897095]",96,49,"shape",51,18,"V","R",NA,"hard","control","alpha",-1,7,"hard"
8,0,"training",62,18,1.66650639999989,"['c']",1,"left","['9']",5,0.440928299999541,"[0.20881679]",100,62,"shape",51,18,"V","R",NA,"easy","control","alpha",-1,8,"easy"
9,0,"training",31,49,1.81591579999986,"['n']",1,"right","['8']",4,1.41436279999925,"[-0.20473258]",96,49,"shape",51,18,"V","R",NA,"hard","control","alpha",1,9,"hard"
10,0,"training",31,49,2.00066409999999,"['c']",0,"right","['3']",3,4.53298899999936,"[-0.05255598]",39,49,"shape",51,18,"V","R",NA,"hard","control","alpha",-1,10,"hard"
11,0,"training",57,23,1.98331359999975,"['c']",1,"left","['8']",4,1.14370220000001,"[0.29263401]",99,57,"shape",51,18,"V","R",NA,"medium","control","alpha",-1,11,"medium"
12,0,"training",23,57,2.91688890000023,"['c']",0,"right","['3']",3,0.220941600000515,"[0.06400946]",92,57,"shape",51,18,"V","R",NA,"medium","control","alpha",-1,12,"medium"
13,0,"training",49,31,2.16674319999947,"['c']",1,"left","['8']",4,0.500696699999935,"[0.10930319]",94,49,"shape",51,18,"V","R",NA,"hard","control","alpha",-1,13,"hard"
14,0,"training",18,62,1.85016390000055,"['n']",1,"right","['8']",4,0.95876170000065,"[-0.23433881]",99,62,"shape",51,18,"V","R",NA,"easy","control","alpha",1,14,"easy"
15,0,"training",57,23,2.35025039999982,"['c']",1,"left","['8']",4,1.12238060000072,"[0.25302059]",99,57,"shape",51,18,"V","R",NA,"medium","control","alpha",-1,15,"medium"
16,0,"training",49,31,1.98335800000041,"['n']",0,"left","['3']",3,0.317503100000067,"[0.0777929]",8,49,"shape",51,18,"V","R",NA,"hard","control","alpha",1,16,"hard"
17,0,"training",31,49,1.88363969999955,"['c']",0,"right","['8']",4,1.70912879999923,"[-0.00358914]",49,49,"shape",51,18,"V","R",NA,"hard","control","alpha",-1,17,"hard"
18,0,"training",31,49,2.03359399999954,"['c']",0,"right","['3']",3,2.76731480000035,"[0.12132638]",79,49,"shape",51,18,"V","R",NA,"hard","control","alpha",-1,18,"hard"
19,0,"training",49,31,2.33367129999988,"['c']",1,"left","['9']",5,0.713760900000125,"[0.08073088]",85,49,"shape",51,18,"V","R",NA,"hard","control","alpha",-1,19,"hard"
20,0,"training",49,31,1.58331760000056,"['c']",1,"left","['9']",5,0.309044900000117,"[0.14459601]",99,49,"shape",51,18,"V","R",NA,"hard","control","alpha",-1,20,"hard"
21,0,"training",18,62,2.35008539999944,"['n']",1,"right","['8']",4,1.47425430000021,"[-0.19023464]",94,62,"shape",51,18,"V","R",NA,"easy","control","alpha",1,21,"easy"
22,0,"training",62,18,3.13261080000029,"['c']",1,"left","['9']",5,0.225919900000008,"[0.08485276]",96,62,"shape",51,18,"V","R",NA,"easy","control","alpha",-1,22,"easy"
23,0,"training",23,57,2.36716099999921,"['c']",0,"right","['9']",5,0.273642800000744,"[0.04772295]",84,57,"shape",51,18,"V","R",NA,"medium","control","alpha",-1,23,"medium"
24,0,"training",18,62,1.31674380000004,"['c']",0,"right","['8']",4,1.30571580000014,"[-0.16649444]",7,62,"shape",51,18,"V","R",NA,"easy","control","alpha",-1,24,"easy"
25,0,"training",57,23,1.43339560000004,"['c']",1,"left","['8']",4,0.211617099999785,"[0.09619672]",98,57,"shape",51,18,"V","R",NA,"medium","control","alpha",-1,25,"medium"
26,0,"training",18,62,1.98346120000042,"['n']",1,"right","['8']",4,0.275436399999307,"[-0.12726638]",99,62,"shape",51,18,"V","R",NA,"easy","control","alpha",1,26,"easy"
27,0,"training",57,23,1.66680919999999,"['c']",1,"left","['9']",5,0.381355600000461,"[0.14258912]",98,57,"shape",51,18,"V","R",NA,"medium","control","alpha",-1,27,"medium"
28,0,"training",31,49,2.21720949999963,"['n']",1,"right","['8']",4,1.9172494000004,"[-0.20331171]",93,49,"shape",51,18,"V","R",NA,"hard","control","alpha",1,28,"hard"
29,0,"training",31,49,3.79998000000069,"['c']",0,"right","['3']",3,0.97614590000012,"[-0.13823906]",7,49,"shape",51,18,"V","R",NA,"hard","control","alpha",-1,29,"hard"
30,0,"training",23,57,1.48370599999998,"['n']",1,"right","['9']",5,0.245640400000411,"[-0.05675928]",89,57,"shape",51,18,"V","R",NA,"medium","control","alpha",1,30,"medium"
31,0,"training",23,57,1.66688690000046,"['c']",0,"right","['9']",5,1.63245310000002,"[0.02419796]",58,57,"shape",51,18,"V","R",NA,"medium","control","alpha",-1,31,"medium"
32,0,"training",23,57,2.3167497000004,"['n']",1,"right","['9']",5,1.29014290000032,"[-0.04358409]",67,57,"shape",51,18,"V","R",NA,"medium","control","alpha",1,32,"medium"
33,0,"training",62,18,1.03420599999936,"['c']",1,"left","['9']",5,0.276560700000118,"[0.07570601]",93,62,"shape",51,18,"V","R",NA,"easy","control","alpha",-1,33,"easy"
34,0,"training",62,18,1.00002839999979,"['c']",1,"left","['9']",5,0.265209499999401,"[0.05715701]",88,62,"shape",51,18,"V","R",NA,"easy","control","alpha",-1,34,"easy"
35,0,"training",57,23,0.800259399999959,"['c']",1,"left","['9']",5,0.870206300000063,"[0.09148981]",85,57,"shape",51,18,"V","R",NA,"medium","control","alpha",-1,35,"medium"
0,1,"training",49,31,1.43458819999978,"['c']",1,"left","['9']",5,1.03399780000018,"[0.22598981]",98,49,"shape",51,18,"V","R",NA,"hard","control","alpha",-1,36,"hard"
1,1,"training",62,18,1.38386560000072,"['c']",1,"left","['0']",6,2.30447319999985,"[0.58558054]",100,62,"shape",51,18,"V","R",NA,"easy","control","alpha",-1,37,"easy"
2,1,"training",62,18,1.41670479999993,"['c']",1,"left","['0']",6,0.370611100000133,"[0.15271359]",99,62,"shape",51,18,"V","R",NA,"easy","control","alpha",-1,38,"easy"
3,1,"training",57,23,0.633709900000213,"['c']",1,"left","['0']",6,0.625713600000381,"[0.0722259]",84,57,"shape",51,18,"V","R",NA,"medium","control","alpha",-1,39,"medium"
4,1,"training",49,31,1.08304070000031,"['c']",1,"left","['9']",5,0.59686739999961,"[0.1665561]",98,49,"shape",51,18,"V","R",NA,"hard","control","alpha",-1,40,"hard"
5,1,"training",49,31,0.700701300000219,"['c']",1,"left","['0']",6,0.312913799999478,"[0.03368408]",75,49,"shape",51,18,"V","R",NA,"hard","control","alpha",-1,41,"hard"
6,1,"training",18,62,1.11655930000052,"['c']",0,"right","['0']",6,0.359080499999436,"[-0.04041262]",23,62,"shape",51,18,"V","R",NA,"easy","control","alpha",-1,42,"easy"
7,1,"training",49,31,1.25016530000084,"['c']",1,"left","['8']",4,0.990617100000236,"[0.17523306]",96,49,"shape",51,18,"V","R",NA,"hard","control","alpha",-1,43,"hard"
8,1,"training",23,57,1.71603499999947,"['n']",1,"right","['9']",5,0.330003799999758,"[-0.03934743]",77,57,"shape",51,18,"V","R",NA,"medium","control","alpha",1,44,"medium"
9,1,"training",57,23,2.13383700000031,"['c']",1,"left","['9']",5,0.238721700000497,"[0.10795137]",98,57,"shape",51,18,"V","R",NA,"medium","control","alpha",-1,45,"medium"
10,1,"training",23,57,1.36681840000074,"['n']",1,"right","['8']",4,1.01416719999997,"[-0.04952669]",71,57,"shape",51,18,"V","R",NA,"medium","control","alpha",1,46,"medium"
11,1,"training",62,18,1.58327159999953,"['c']",1,"left","['9']",5,0.661831499999607,"[0.1419301]",96,62,"shape",51,18,"V","R",NA,"easy","control","alpha",-1,47,"easy"
12,1,"training",18,62,0.883876299999429,"['c']",0,"right","['9']",5,0.255791200000203,"[0.00068097]",51,62,"shape",51,18,"V","R",NA,"easy","control","alpha",-1,48,"easy"
13,1,"training",31,49,0.900296499999968,"['c']",0,"right","['8']",4,0.744705100000829,"[-0.01297927]",43,49,"shape",51,18,"V","R",NA,"hard","control","alpha",-1,49,"hard"
14,1,"training",31,49,0.883555599999454,"['c']",0,"right","['8']",4,0.239287200000035,"[-0.03487572]",22,49,"shape",51,18,"V","R",NA,"hard","control","alpha",-1,50,"hard"
15,1,"training",23,57,1.53341780000028,"['n']",1,"right","['3']",3,3.02389390000008,"[-0.13637197]",80,57,"shape",51,18,"V","R",NA,"medium","control","alpha",1,51,"medium"
16,1,"training",23,57,1.91645659999995,"['n']",1,"right","['3']",3,2.60930019999978,"[-0.54107099]",100,57,"shape",51,18,"V","R",NA,"medium","control","alpha",1,52,"medium"
17,1,"training",57,23,1.3335132000002,"['c']",1,"left","['9']",5,0.459055299999818,"[0.18323242]",99,57,"shape",51,18,"V","R",NA,"medium","control","alpha",-1,53,"medium"
18,1,"training",57,23,0.750874899999872,"['c']",1,"left","['9']",5,0.369966799999929,"[0.11225335]",97,57,"shape",51,18,"V","R",NA,"medium","control","alpha",-1,54,"medium"
19,1,"training",62,18,0.60082599999987,"['c']",1,"left","['0']",6,0.738164899999902,"[0.22037592]",99,62,"shape",51,18,"V","R",NA,"easy","control","alpha",-1,55,"easy"
20,1,"training",49,31,2.81668480000008,"['c']",1,"left","['3']",3,0.235724199999822,"[0.0458251]",85,49,"shape",51,18,"V","R",NA,"hard","control","alpha",-1,56,"hard"
21,1,"training",57,23,0.849689700000454,"['c']",1,"left","['0']",6,1.12808900000073,"[0.11920857]",88,57,"shape",51,18,"V","R",NA,"medium","control","alpha",-1,57,"medium"
22,1,"training",62,18,0.683521800000563,"['c']",1,"left","['0']",6,0.423234599999887,"[0.13973518]",98,62,"shape",51,18,"V","R",NA,"easy","control","alpha",-1,58,"easy"
23,1,"training",31,49,0.616793500000313,"['c']",0,"right","['0']",6,0.50094689999969,"[-0.10100601]",7,49,"shape",51,18,"V","R",NA,"hard","control","alpha",-1,59,"hard"
24,1,"training",31,49,2.15038480000021,"['n']",1,"right","['8']",4,1.02703180000026,"[-0.17661693]",96,49,"shape",51,18,"V","R",NA,"hard","control","alpha",1,60,"hard"
25,1,"training",23,57,3.35056449999956,"['n']",1,"right","['3']",3,0.155842899999698,"[-0.01391411]",65,57,"shape",51,18,"V","R",NA,"medium","control","alpha",1,61,"medium"
26,1,"training",57,23,1.4167508999999,"['c']",1,"left","['9']",5,0.484201600000233,"[0.04571122]",77,57,"shape",51,18,"V","R",NA,"medium","control","alpha",-1,62,"medium"
27,1,"training",31,49,1.3664802000003,"['n']",1,"right","['8']",4,1.28214889999981,"[-0.14532877]",91,49,"shape",51,18,"V","R",NA,"hard","control","alpha",1,63,"hard"
28,1,"training",31,49,1.49995479999961,"['c']",0,"right","['8']",4,0.505864199999451,"[0.00457156]",53,49,"shape",51,18,"V","R",NA,"hard","control","alpha",-1,64,"hard"
29,1,"training",18,62,1.13375820000056,"['n']",1,"right","['9']",5,0.447889099999884,"[-0.24649694]",100,62,"shape",51,18,"V","R",NA,"easy","control","alpha",1,65,"easy"
30,1,"training",49,31,2.58429479999995,"['c']",1,"left","['8']",4,0.286520900000141,"[0.05333023]",86,49,"shape",51,18,"V","R",NA,"hard","control","alpha",-1,66,"hard"
31,1,"training",23,57,1.56747499999983,"['n']",1,"right","['8']",4,0.68369950000033,"[-0.13921806]",95,57,"shape",51,18,"V","R",NA,"medium","control","alpha",1,67,"medium"
32,1,"training",62,18,1.3675530999999,"['c']",1,"left","['8']",4,0.928235899999891,"[0.06427352]",77,62,"shape",51,18,"V","R",NA,"easy","control","alpha",-1,68,"easy"
33,1,"training",18,62,0.833640300000297,"['n']",1,"right","['0']",6,0.849468000000343,"[-0.21945695]",99,62,"shape",51,18,"V","R",NA,"easy","control","alpha",1,69,"easy"
34,1,"training",18,62,1.10051379999913,"['n']",1,"right","['0']",6,0.202564100000018,"[-0.10308934]",98,62,"shape",51,18,"V","R",NA,"easy","control","alpha",1,70,"easy"
35,1,"training",18,62,1.46666400000049,"['n']",1,"right","['9']",5,0.28746239999964,"[-0.10369145]",97,62,"shape",51,18,"V","R",NA,"easy","control","alpha",1,71,"easy"
0,2,"training",23,57,0.95098009999947,"['c']",0,"right","['8']",4,0.393611100000271,"[-0.0289337]",30,57,"shape",51,18,"V","R",NA,"medium","control","alpha",-1,72,"medium"
1,2,"training",57,23,1.49980770000002,"['n']",0,"left","['3']",3,0.293576699999903,"[-0.02312418]",68,57,"shape",51,18,"V","R",NA,"medium","control","alpha",1,73,"medium"
2,2,"training",18,62,2.05011009999998,"['n']",1,"right","['0']",6,0.799547999999959,"[-0.23688723]",99,62,"shape",51,18,"V","R",NA,"easy","control","alpha",1,74,"easy"
3,2,"training",23,57,0.967029299999922,"['n']",1,"right","['0']",6,0.719475500000044,"[-0.07962411]",84,57,"shape",51,18,"V","R",NA,"medium","control","alpha",1,75,"medium"
4,2,"training",18,62,0.949993199999881,"['n']",1,"right","['0']",6,0.307931899999858,"[-0.18532118]",100,62,"shape",51,18,"V","R",NA,"easy","control","alpha",1,76,"easy"
5,2,"training",49,31,0.799925599999369,"['n']",0,"left","['0']",6,0.238790100000188,"[0.03745145]",20,49,"shape",51,18,"V","R",NA,"hard","control","alpha",1,77,"hard"
6,2,"training",23,57,0.700381700000435,"['n']",1,"right","['0']",6,0.208693499999754,"[-0.10735499]",99,57,"shape",51,18,"V","R",NA,"medium","control","alpha",1,78,"medium"
7,2,"training",57,23,1.68407260000004,"['c']",1,"left","['0']",6,0.188628400000198,"[0.06527978]",94,57,"shape",51,18,"V","R",NA,"medium","control","alpha",-1,79,"medium"
8,2,"training",31,49,2.13337690000026,"['n']",1,"right","['3']",3,0.6630626999995,"[-0.17835664]",98,49,"shape",51,18,"V","R",NA,"hard","control","alpha",1,80,"hard"
9,2,"training",62,18,1.53318690000015,"['c']",1,"left","['0']",6,0.231034599999475,"[0.11251273]",99,62,"shape",51,18,"V","R",NA,"easy","control","alpha",-1,81,"easy"
10,2,"training",62,18,0.767050700000254,"['c']",1,"left","['0']",6,0.422411799999281,"[0.18137989]",99,62,"shape",51,18,"V","R",NA,"easy","control","alpha",-1,82,"easy"
11,2,"training",18,62,0.883866400000443,"['n']",1,"right","['9']",5,0.505799800000204,"[-0.2102282]",100,62,"shape",51,18,"V","R",NA,"easy","control","alpha",1,83,"easy"
12,2,"training",49,31,1.21765950000008,"['c']",1,"left","['0']",6,0.364428299999418,"[0.0819713]",92,49,"shape",51,18,"V","R",NA,"hard","control","alpha",-1,84,"hard"
13,2,"training",31,49,1.99905769999987,"['n']",1,"right","['3']",3,0.597538099999838,"[-0.04338894]",73,49,"shape",51,18,"V","R",NA,"hard","control","alpha",1,85,"hard"
14,2,"training",49,31,0.950491200000215,"['c']",1,"left","['0']",6,0.255259999999907,"[0.01296081]",61,49,"shape",51,18,"V","R",NA,"hard","control","alpha",-1,86,"hard"
15,2,"training",31,49,2.11672829999952,"['c']",0,"right","['0']",6,0.21583499999997,"[-0.023545]",29,49,"shape",51,18,"V","R",NA,"hard","control","alpha",-1,87,"hard"
16,2,"training",31,49,0.950549000000137,"['n']",1,"right","['0']",6,0.256966999999349,"[-0.11618103]",98,49,"shape",51,18,"V","R",NA,"hard","control","alpha",1,88,"hard"
17,2,"training",57,23,1.38303360000009,"['c']",1,"left","['0']",6,0.0704048999996303,"[0.02317304]",83,57,"shape",51,18,"V","R",NA,"medium","control","alpha",-1,89,"medium"
18,2,"training",49,31,1.01674319999984,"['c']",1,"left","['8']",4,0.67511420000028,"[0.02389962]",63,49,"shape",51,18,"V","R",NA,"hard","control","alpha",-1,90,"hard"
19,2,"training",57,23,0.999710899999627,"['c']",1,"left","['0']",6,0.23155560000032,"[0.10216157]",98,57,"shape",51,18,"V","R",NA,"medium","control","alpha",-1,91,"medium"
20,2,"training",23,57,0.95034459999988,"['c']",0,"right","['0']",6,0.223931700000321,"[0.0556945]",89,57,"shape",51,18,"V","R",NA,"medium","control","alpha",-1,92,"medium"
21,2,"training",18,62,0.850831300000209,"['n']",1,"right","['9']",5,0.220413899999585,"[0.03719849]",19,62,"shape",51,18,"V","R",NA,"easy","control","alpha",1,93,"easy"
22,2,"training",57,23,0.966476900000089,"['c']",1,"left","['0']",6,0.0841187999994872,"[0.06248846]",98,57,"shape",51,18,"V","R",NA,"medium","control","alpha",-1,94,"medium"
23,2,"training",49,31,1.03425570000036,"['c']",1,"left","['3']",3,0.319234300000062,"[0.11423302]",97,49,"shape",51,18,"V","R",NA,"hard","control","alpha",-1,95,"hard"
24,2,"training",31,49,1.15057750000051,"['n']",1,"right","['8']",4,1.08365400000002,"[-0.12963285]",90,49,"shape",51,18,"V","R",NA,"hard","control","alpha",1,96,"hard"
25,2,"training",62,18,1.00092810000024,"['c']",1,"left","['0']",6,0.239410399999542,"[-0.02880558]",26,62,"shape",51,18,"V","R",NA,"easy","control","alpha",-1,97,"easy"
26,2,"training",23,57,0.999942999999803,"['n']",1,"right","['0']",6,1.15738010000041,"[-0.26447822]",99,57,"shape",51,18,"V","R",NA,"medium","control","alpha",1,98,"medium"
27,2,"training",62,18,1.01628390000042,"['c']",1,"left","['0']",6,0.373854200000096,"[0.12206874]",97,62,"shape",51,18,"V","R",NA,"easy","control","alpha",-1,99,"easy"
28,2,"training",49,31,2.83341689999997,"['n']",0,"left","['3']",3,0.253358500000104,"[-0.09084083]",96,49,"shape",51,18,"V","R",NA,"hard","control","alpha",1,100,"hard"
29,2,"training",18,62,2.10008099999959,"['n']",1,"right","['3']",3,0.262533899999653,"[-0.19184559]",100,62,"shape",51,18,"V","R",NA,"easy","control","alpha",1,101,"easy"
30,2,"training",31,49,1.03394230000049,"['c']",0,"right","['0']",6,0.0583018999996057,"[0.0547885]",98,49,"shape",51,18,"V","R",NA,"hard","control","alpha",-1,102,"hard"
31,2,"training",62,18,0.666446700000051,"['c']",1,"left","['0']",6,0.196659399999589,"[0.07377023]",95,62,"shape",51,18,"V","R",NA,"easy","control","alpha",-1,103,"easy"
32,2,"training",18,62,1.26729220000016,"['c']",0,"right","['8']",4,0.305740499999956,"[0.04915782]",83,62,"shape",51,18,"V","R",NA,"easy","control","alpha",-1,104,"easy"
33,2,"training",57,23,2.33340080000016,"['c']",1,"left","['3']",3,0.33572710000044,"[0.09941526]",96,57,"shape",51,18,"V","R",NA,"medium","control","alpha",-1,105,"medium"
34,2,"training",23,57,1.45009860000027,"['n']",1,"right","['0']",6,0.224141300000156,"[-0.04606797]",85,57,"shape",51,18,"V","R",NA,"medium","control","alpha",1,106,"medium"
35,2,"training",62,18,2.11581579999984,"['c']",1,"left","['8']",4,0.298048499999823,"[0.12961431]",99,62,"shape",51,18,"V","R",NA,"easy","control","alpha",-1,107,"easy"
0,0,"training",16,64,1.40018369999962,"['n']",1,"right","['8']",4,1.90537780000068,"[-0.62697681]",98,64,"letter",51,18,"V","R",NA,"easy","minus","alpha",1,0,"easy"
1,0,"training",64,16,0.849824699999772,"['c']",1,"left","['8']",4,0.266121200000271,"[0.2015662]",97,64,"letter",51,18,"V","R",NA,"easy","minus","alpha",-1,1,"easy"
2,0,"training",64,16,0.950686199999836,"['c']",1,"left","['8']",4,0.19313719999991,"[0.16700437]",97,64,"letter",51,18,"V","R",NA,"easy","minus","alpha",-1,2,"easy"
3,0,"training",23,57,0.916646699999546,"['c']",0,"right","['9']",5,0.124288499999238,"[-0.02034764]",37,57,"letter",51,18,"V","R",NA,"medium","minus","alpha",-1,3,"medium"
4,0,"training",31,49,0.866693300000406,"['n']",1,"right","['0']",6,0.28386750000027,"[-0.1340167]",91,49,"letter",51,18,"V","R",NA,"hard","minus","alpha",1,4,"hard"
5,0,"training",31,49,0.749114000000191,"['n']",1,"right","['0']",6,0.0106969999997091,"[-0.04211153]",97,49,"letter",51,18,"V","R",NA,"hard","minus","alpha",1,5,"hard"
6,0,"training",16,64,0.699783699999898,"['n']",1,"right","['0']",6,0.933419199999662,"[-0.10116562]",72,64,"letter",51,18,"V","R",NA,"easy","minus","alpha",1,6,"easy"
7,0,"training",31,49,1.36684669999977,"['c']",0,"right","['8']",4,1.53653170000052,"[0.0230686]",54,49,"letter",51,18,"V","R",NA,"hard","minus","alpha",-1,7,"hard"
8,0,"training",16,64,0.833387600000606,"['n']",1,"right","['0']",6,0.265212500000416,"[-0.13982571]",92,64,"letter",51,18,"V","R",NA,"easy","minus","alpha",1,8,"easy"
9,0,"training",49,31,0.81652000000031,"['n']",0,"left","['0']",6,0.453530599999795,"[-0.00408953]",51,49,"letter",51,18,"V","R",NA,"hard","minus","alpha",1,9,"hard"
10,0,"training",64,16,1.43332260000079,"['c']",1,"left","['8']",4,0.433376300000418,"[0.07397643]",73,64,"letter",51,18,"V","R",NA,"easy","minus","alpha",-1,10,"easy"
11,0,"training",16,64,0.866378599999734,"['n']",1,"right","['8']",4,0.29309319999993,"[-0.11243889]",87,64,"letter",51,18,"V","R",NA,"easy","minus","alpha",1,11,"easy"
12,0,"training",49,31,1.00043279999954,"['n']",0,"left","['8']",4,0.344860199999857,"[0.0604915]",28,49,"letter",51,18,"V","R",NA,"hard","minus","alpha",1,12,"hard"
13,0,"training",57,23,2.98330900000019,"['c']",1,"left","['9']",5,0.411664000000201,"[0.06250084]",71,57,"letter",51,18,"V","R",NA,"medium","minus","alpha",-1,13,"medium"
14,0,"training",31,49,0.650045299999874,"['n']",1,"right","['9']",5,0.408730199999809,"[-0.00753921]",53,49,"letter",51,18,"V","R",NA,"hard","minus","alpha",1,14,"hard"
15,0,"training",23,57,0.700271899999279,"['n']",1,"right","['0']",6,0.611595800000032,"[-0.09843702]",76,57,"letter",51,18,"V","R",NA,"medium","minus","alpha",1,15,"medium"
16,0,"training",23,57,3.29990849999922,"['n']",1,"right","['9']",5,0.335153799999716,"[-0.16712979]",93,57,"letter",51,18,"V","R",NA,"medium","minus","alpha",1,16,"medium"
17,0,"training",31,49,0.816783100000066,"['n']",1,"right","['0']",6,0.248964700000215,"[-0.10414146]",87,49,"letter",51,18,"V","R",NA,"hard","minus","alpha",1,17,"hard"
18,0,"training",57,23,1.83317379999971,"['n']",0,"left","['3']",3,0.189446299999872,"[0.01779654]",41,57,"letter",51,18,"V","R",NA,"medium","minus","alpha",1,18,"medium"
19,0,"training",49,31,1.98445259999971,"['c']",1,"left","['9']",5,0.462029300000722,"[-0.15290577]",12,49,"letter",51,18,"V","R",NA,"hard","minus","alpha",-1,19,"hard"
20,0,"training",16,64,0.733096800000567,"['n']",1,"right","['0']",6,0.245819699999629,"[-0.17536921]",96,64,"letter",51,18,"V","R",NA,"easy","minus","alpha",1,20,"easy"
21,0,"training",49,31,3.39949750000051,"['c']",1,"left","['3']",3,0.15579759999946,"[0.03169416]",67,49,"letter",51,18,"V","R",NA,"hard","minus","alpha",-1,21,"hard"
22,0,"training",57,23,1.31659579999996,"['n']",0,"left","['8']",4,0.568305700000565,"[-0.04104181]",62,57,"letter",51,18,"V","R",NA,"medium","minus","alpha",1,22,"medium"
23,0,"training",64,16,1.69967639999959,"['c']",1,"left","['9']",5,0.804685299999619,"[0.24427104]",92,64,"letter",51,18,"V","R",NA,"easy","minus","alpha",-1,23,"easy"
24,0,"training",57,23,1.54980319999959,"['c']",1,"left","['9']",5,0.590215700000044,"[0.070545]",70,57,"letter",51,18,"V","R",NA,"medium","minus","alpha",-1,24,"medium"
25,0,"training",16,64,0.950179600000411,"['n']",1,"right","['9']",5,0.215910599999916,"[-0.04334412]",70,64,"letter",51,18,"V","R",NA,"easy","minus","alpha",1,25,"easy"
26,0,"training",23,57,1.06706149999991,"['n']",1,"right","['9']",5,0.30030859999988,"[-0.05603761]",71,57,"letter",51,18,"V","R",NA,"medium","minus","alpha",1,26,"medium"
27,0,"training",64,16,1.79996949999986,"['c']",1,"left","['8']",4,1.95231030000014,"[0.59095912]",98,64,"letter",51,18,"V","R",NA,"easy","minus","alpha",-1,27,"easy"
28,0,"training",57,23,1.26634490000015,"['n']",0,"left","['8']",4,0.855056099999274,"[-0.08680255]",70,57,"letter",51,18,"V","R",NA,"medium","minus","alpha",1,28,"medium"
29,0,"training",23,57,1.34917210000003,"['n']",1,"right","['8']",4,0.230191500000728,"[-0.03193914]",65,57,"letter",51,18,"V","R",NA,"medium","minus","alpha",1,29,"medium"
30,0,"training",57,23,2.01669280000078,"['c']",1,"left","['9']",5,0.532128900000316,"[0.12583142]",83,57,"letter",51,18,"V","R",NA,"medium","minus","alpha",-1,30,"medium"
31,0,"training",23,57,1.1503531999997,"['c']",0,"right","['3']",3,1.17644659999951,"[-0.18168597]",18,57,"letter",51,18,"V","R",NA,"medium","minus","alpha",-1,31,"medium"
32,0,"training",49,31,1.13331060000019,"['n']",0,"left","['9']",5,0.467986100000417,"[-0.02485357]",58,49,"letter",51,18,"V","R",NA,"hard","minus","alpha",1,32,"hard"
33,0,"training",49,31,1.81663750000007,"['c']",1,"left","['8']",4,0.320378399999754,"[0.07244971]",76,49,"letter",51,18,"V","R",NA,"hard","minus","alpha",-1,33,"hard"
34,0,"training",64,16,1.18361169999935,"['c']",1,"left","['9']",5,0.0755531999993764,"[0.08652277]",94,64,"letter",51,18,"V","R",NA,"easy","minus","alpha",-1,34,"easy"
35,0,"training",31,49,0.68395640000017,"['n']",1,"right","['0']",6,0.708425600000737,"[-0.05519991]",64,49,"letter",51,18,"V","R",NA,"hard","minus","alpha",1,35,"hard"
0,1,"training",16,64,0.733214900000348,"['n']",1,"right","['9']",5,0.297788299999411,"[-0.15529181]",93,64,"letter",51,18,"V","R",NA,"easy","minus","alpha",1,36,"easy"
1,1,"training",31,49,0.782982799999445,"['n']",1,"right","['0']",6,0.230596700000206,"[-0.0859386]",83,49,"letter",51,18,"V","R",NA,"hard","minus","alpha",1,37,"hard"
2,1,"training",49,31,0.616615199999615,"['n']",0,"left","['9']",5,0.332165099999656,"[-0.0107562]",54,49,"letter",51,18,"V","R",NA,"hard","minus","alpha",1,38,"hard"
3,1,"training",31,49,1.24955950000003,"['n']",1,"right","['9']",5,0.260568700000476,"[-0.05005616]",71,49,"letter",51,18,"V","R",NA,"hard","minus","alpha",1,39,"hard"
4,1,"training",16,64,0.699705899999572,"['n']",1,"right","['9']",5,0.133489599999848,"[-0.14956775]",98,64,"letter",51,18,"V","R",NA,"easy","minus","alpha",1,40,"easy"
5,1,"training",49,31,0.783359299999574,"['n']",0,"left","['8']",4,0.280798900000264,"[-0.00562675]",52,49,"letter",51,18,"V","R",NA,"hard","minus","alpha",1,41,"hard"
6,1,"training",57,23,1.68315409999923,"['c']",1,"left","['8']",4,0.737635299999965,"[0.13248943]",80,57,"letter",51,18,"V","R",NA,"medium","minus","alpha",-1,42,"medium"
7,1,"training",64,16,0.566576000000168,"['c']",1,"left","['8']",4,0.260774899999888,"[0.09607815]",84,64,"letter",51,18,"V","R",NA,"easy","minus","alpha",-1,43,"easy"
8,1,"training",49,31,1.31741669999974,"['c']",1,"left","['8']",4,0.221301500000664,"[0.03055068]",64,49,"letter",51,18,"V","R",NA,"hard","minus","alpha",-1,44,"hard"
9,1,"training",16,64,0.83333550000043,"['n']",1,"right","['9']",5,0.154178900000261,"[-0.07088963]",83,64,"letter",51,18,"V","R",NA,"easy","minus","alpha",1,45,"easy"
10,1,"training",31,49,0.633888499999557,"['n']",1,"right","['9']",5,0.258140599999933,"[0.02490422]",39,49,"letter",51,18,"V","R",NA,"hard","minus","alpha",1,46,"hard"
11,1,"training",57,23,0.783357299999807,"['c']",1,"left","['9']",5,0.288044199999604,"[0.12022832]",88,57,"letter",51,18,"V","R",NA,"medium","minus","alpha",-1,47,"medium"
12,1,"training",23,57,0.883115600000565,"['c']",0,"right","['8']",4,0.296214599999985,"[-0.04145991]",34,57,"letter",51,18,"V","R",NA,"medium","minus","alpha",-1,48,"medium"
13,1,"training",64,16,1.25002649999988,"['c']",1,"left","['9']",5,0.337925799999539,"[0.17074857]",93,64,"letter",51,18,"V","R",NA,"easy","minus","alpha",-1,49,"easy"
14,1,"training",31,49,0.766854100000273,"['n']",1,"right","['9']",5,0.221139299999777,"[-0.08281803]",83,49,"letter",51,18,"V","R",NA,"hard","minus","alpha",1,50,"hard"
15,1,"training",23,57,0.883733599999687,"['n']",1,"right","['9']",5,0.215773800000534,"[-0.12789368]",92,57,"letter",51,18,"V","R",NA,"medium","minus","alpha",1,51,"medium"
16,1,"training",64,16,0.733678800000234,"['c']",1,"left","['0']",6,0.473423899999943,"[0.16964537]",90,64,"letter",51,18,"V","R",NA,"easy","minus","alpha",-1,52,"easy"
17,1,"training",16,64,0.633607700000539,"['n']",1,"right","['0']",6,0.452662300000156,"[-0.01796696]",56,64,"letter",51,18,"V","R",NA,"easy","minus","alpha",1,53,"easy"
18,1,"training",49,31,1.08389220000026,"['c']",1,"left","['0']",6,0.286350000000311,"[0.0713722]",77,49,"letter",51,18,"V","R",NA,"hard","minus","alpha",-1,54,"hard"
19,1,"training",64,16,3.76663629999985,"['n']",0,"left","['8']",4,0.0838049999993018,"[-0.07963991]",92,64,"letter",51,18,"V","R",NA,"easy","minus","alpha",1,55,"easy"
20,1,"training",57,23,1.59971459999997,"['c']",1,"left","['0']",6,0.151881400000093,"[0.00590566]",53,57,"letter",51,18,"V","R",NA,"medium","minus","alpha",-1,56,"medium"
21,1,"training",57,23,1.73320169999988,"['c']",1,"left","['8']",4,0.148450200000298,"[0.07644488]",86,57,"letter",51,18,"V","R",NA,"medium","minus","alpha",-1,57,"medium"
22,1,"training",16,64,0.98314819999996,"['n']",1,"right","['8']",4,0.543260999999802,"[-0.23211256]",94,64,"letter",51,18,"V","R",NA,"easy","minus","alpha",1,58,"easy"
23,1,"training",23,57,0.751108500000555,"['n']",1,"right","['0']",6,0.178385600000183,"[-0.10379025]",90,57,"letter",51,18,"V","R",NA,"medium","minus","alpha",1,59,"medium"
24,1,"training",57,23,1.60004959999969,"['c']",1,"left","['9']",5,0.867475099999865,"[0.11670865]",76,57,"letter",51,18,"V","R",NA,"medium","minus","alpha",-1,60,"medium"
25,1,"training",23,57,1.06682730000011,"['n']",1,"right","['9']",5,0.284888099999989,"[-0.0784536]",79,57,"letter",51,18,"V","R",NA,"medium","minus","alpha",1,61,"medium"
26,1,"training",31,49,1.04987139999957,"['n']",1,"right","['0']",6,0.367444099999375,"[-0.04921735]",67,49,"letter",51,18,"V","R",NA,"hard","minus","alpha",1,62,"hard"
27,1,"training",64,16,1.24886109999989,"['c']",1,"left","['0']",6,0.118884900000012,"[0.07226048]",87,64,"letter",51,18,"V","R",NA,"easy","minus","alpha",-1,63,"easy"
28,1,"training",49,31,1.23320870000043,"['c']",1,"left","['3']",3,0.344297900000129,"[0.00782344]",53,49,"letter",51,18,"V","R",NA,"hard","minus","alpha",-1,64,"hard"
29,1,"training",23,57,0.818080099999861,"['n']",1,"right","['0']",6,0.129661799999667,"[-0.06849267]",85,57,"letter",51,18,"V","R",NA,"medium","minus","alpha",1,65,"medium"
30,1,"training",57,23,1.01642510000056,"['c']",1,"left","['0']",6,0.171098099999654,"[0.14350965]",96,57,"letter",51,18,"V","R",NA,"medium","minus","alpha",-1,66,"medium"
31,1,"training",23,57,0.7510472999993,"['n']",1,"right","['0']",6,0.333926399999655,"[-0.12608194]",88,57,"letter",51,18,"V","R",NA,"medium","minus","alpha",1,67,"medium"
32,1,"training",31,49,1.53362440000001,"['c']",0,"right","['9']",5,0.69907669999975,"[0.07327825]",69,49,"letter",51,18,"V","R",NA,"hard","minus","alpha",-1,68,"hard"
33,1,"training",16,64,1.15007489999971,"['n']",1,"right","['9']",5,0.16857489999984,"[-0.1015212]",90,64,"letter",51,18,"V","R",NA,"easy","minus","alpha",1,69,"easy"
34,1,"training",49,31,1.31613970000035,"['n']",0,"left","['3']",3,0.612912100000358,"[-0.05104185]",64,49,"letter",51,18,"V","R",NA,"hard","minus","alpha",1,70,"hard"
35,1,"training",64,16,2.15008760000001,"['c']",1,"left","['8']",4,0.0941906999996718,"[0.05570097]",84,64,"letter",51,18,"V","R",NA,"easy","minus","alpha",-1,71,"easy"
0,2,"training",49,31,0.75010310000016,"['c']",1,"left","['9']",5,0.2286138999998,"[0.04207503]",69,49,"letter",51,18,"V","R",NA,"hard","minus","alpha",-1,72,"hard"
1,2,"training",57,23,0.733011600000282,"['c']",1,"left","['0']",6,0.277604699999756,"[0.08722462]",82,57,"letter",51,18,"V","R",NA,"medium","minus","alpha",-1,73,"medium"
2,2,"training",64,16,0.700127900000552,"['c']",1,"left","['0']",6,0.693621399999756,"[0.16277604]",85,64,"letter",51,18,"V","R",NA,"easy","minus","alpha",-1,74,"easy"
3,2,"training",23,57,0.983917700000347,"['n']",1,"right","['0']",6,0.202173700000458,"[-0.10361307]",89,57,"letter",51,18,"V","R",NA,"medium","minus","alpha",1,75,"medium"
4,2,"training",57,23,0.599800799999684,"['c']",1,"left","['0']",6,0.241851800000404,"[0.04401407]",69,57,"letter",51,18,"V","R",NA,"medium","minus","alpha",-1,76,"medium"
5,2,"training",16,64,0.783594499999708,"['n']",1,"right","['0']",6,0.208235000000059,"[-0.08900662]",85,64,"letter",51,18,"V","R",NA,"easy","minus","alpha",1,77,"easy"
6,2,"training",31,49,1.04837240000052,"['n']",1,"right","['9']",5,0.212689399999363,"[-0.02896887]",64,49,"letter",51,18,"V","R",NA,"hard","minus","alpha",1,78,"hard"
7,2,"training",16,64,1.1498375000001,"['n']",1,"right","['0']",6,0.261642000000393,"[-0.178887]",96,64,"letter",51,18,"V","R",NA,"easy","minus","alpha",1,79,"easy"
8,2,"training",57,23,0.916892400000506,"['n']",0,"left","['0']",6,0.126202999999805,"[-0.07950593]",88,57,"letter",51,18,"V","R",NA,"medium","minus","alpha",1,80,"medium"
9,2,"training",16,64,0.616672699999981,"['n']",1,"right","['0']",6,0.199902100000145,"[-0.05387181]",75,64,"letter",51,18,"V","R",NA,"easy","minus","alpha",1,81,"easy"
10,2,"training",57,23,0.683874100000139,"['c']",1,"left","['0']",6,0.268119400000614,"[0.10751858]",87,57,"letter",51,18,"V","R",NA,"medium","minus","alpha",-1,82,"medium"
11,2,"training",49,31,1.55011689999992,"['c']",1,"left","['0']",6,0.299469100000351,"[-0.03738481]",35,49,"letter",51,18,"V","R",NA,"hard","minus","alpha",-1,83,"hard"
12,2,"training",64,16,1.11672420000014,"['c']",1,"left","['0']",6,0.346612100000129,"[0.08086024]",77,64,"letter",51,18,"V","R",NA,"easy","minus","alpha",-1,84,"easy"
13,2,"training",16,64,1.03347409999969,"['n']",1,"right","['0']",6,0.267270099999223,"[-0.08582559]",82,64,"letter",51,18,"V","R",NA,"easy","minus","alpha",1,85,"easy"
14,2,"training",64,16,0.633111799999824,"['c']",1,"left","['0']",6,0.494678600000043,"[0.13129834]",84,64,"letter",51,18,"V","R",NA,"easy","minus","alpha",-1,86,"easy"
15,2,"training",23,57,0.982793500000298,"['n']",1,"right","['0']",6,0.187277900000481,"[-0.11944013]",92,57,"letter",51,18,"V","R",NA,"medium","minus","alpha",1,87,"medium"
16,2,"training",23,57,0.850109900000461,"['n']",1,"right","['0']",6,0.248836900000242,"[-0.08936604]",83,57,"letter",51,18,"V","R",NA,"medium","minus","alpha",1,88,"medium"
17,2,"training",64,16,1.23298480000085,"['c']",1,"left","['9']",5,0.341669499999625,"[0.0297289]",61,64,"letter",51,18,"V","R",NA,"easy","minus","alpha",-1,89,"easy"
18,2,"training",49,31,0.917157299999417,"['c']",1,"left","['0']",6,0.698421199999757,"[0.08570269]",72,49,"letter",51,18,"V","R",NA,"hard","minus","alpha",-1,90,"hard"
19,2,"training",31,49,0.650036699999873,"['n']",1,"right","['0']",6,0.220233899999585,"[-0.1072316]",89,49,"letter",51,18,"V","R",NA,"hard","minus","alpha",1,91,"hard"
20,2,"training",57,23,0.832234399999834,"['c']",1,"left","['0']",6,0.185615100000177,"[0.0416295]",70,57,"letter",51,18,"V","R",NA,"medium","minus","alpha",-1,92,"medium"
21,2,"training",23,57,0.583430500000759,"['n']",1,"right","['0']",6,0.146056699999463,"[-0.12569796]",95,57,"letter",51,18,"V","R",NA,"medium","minus","alpha",1,93,"medium"
22,2,"training",49,31,0.84977119999985,"['c']",1,"left","['0']",6,0.225911300000007,"[0.06046781]",76,49,"letter",51,18,"V","R",NA,"hard","minus","alpha",-1,94,"hard"
23,2,"training",31,49,1.29930299999978,"['n']",1,"right","['0']",6,0.0284816000003048,"[-0.04435947]",91,49,"letter",51,18,"V","R",NA,"hard","minus","alpha",1,95,"hard"
24,2,"training",31,49,0.699801400000069,"['n']",1,"right","['0']",6,0.214837399999851,"[-0.05411355]",74,49,"letter",51,18,"V","R",NA,"hard","minus","alpha",1,96,"hard"
25,2,"training",57,23,1.26614849999987,"['c']",1,"left","['0']",6,0.387275600000066,"[0.11465414]",84,57,"letter",51,18,"V","R",NA,"medium","minus","alpha",-1,97,"medium"
26,2,"training",31,49,0.800281000000723,"['n']",1,"right","['0']",6,0.250966800000242,"[-0.0752911]",79,49,"letter",51,18,"V","R",NA,"hard","minus","alpha",1,98,"hard"
27,2,"training",49,31,0.950368900000285,"['c']",1,"left","['0']",6,0.226676100000077,"[0.09314347]",85,49,"letter",51,18,"V","R",NA,"hard","minus","alpha",-1,99,"hard"
28,2,"training",64,16,0.96697469999981,"['c']",1,"left","['0']",6,0.602501899999879,"[0.19040131]",90,64,"letter",51,18,"V","R",NA,"easy","minus","alpha",-1,100,"easy"
29,2,"training",16,64,0.683636799999476,"['n']",1,"right","['0']",6,0.174273999999969,"[-0.02310105]",62,64,"letter",51,18,"V","R",NA,"easy","minus","alpha",1,101,"easy"
30,2,"training",31,49,1.30058000000008,"['n']",1,"right","['0']",6,0.266727099999116,"[-0.19841798]",97,49,"letter",51,18,"V","R",NA,"hard","minus","alpha",1,102,"hard"
31,2,"training",23,57,0.666695099999743,"['n']",1,"right","['0']",6,0.332869300000311,"[-0.10199736]",83,57,"letter",51,18,"V","R",NA,"medium","minus","alpha",1,103,"medium"
32,2,"training",64,16,1.34993329999998,"['c']",1,"left","['8']",4,0.241324200000236,"[0.10594146]",87,64,"letter",51,18,"V","R",NA,"easy","minus","alpha",-1,104,"easy"
33,2,"training",16,64,0.566657999999734,"['n']",1,"right","['8']",4,0.264530699999341,"[-0.07203618]",78,64,"letter",51,18,"V","R",NA,"easy","minus","alpha",1,105,"easy"
34,2,"training",49,31,1.46669830000064,"['c']",1,"left","['8']",4,0.29907650000041,"[0.09223327]",82,49,"letter",51,18,"V","R",NA,"hard","minus","alpha",-1,106,"hard"
35,2,"training",23,57,0.866703799999414,"['n']",1,"right","['9']",5,0.32411779999984,"[-0.04264589]",66,57,"letter",51,18,"V","R",NA,"medium","minus","alpha",1,107,"medium"
0,0,"training",36,44,0.950554099999863,"['n']",1,"right","['9']",5,0.371077000000696,"[-0.03852837]",91,44,"colour",51,18,"V","R",NA,"hard","plus","alpha",1,0,"hard"
1,0,"training",27,53,0.566170899999634,"['n']",1,"right","['9']",5,0.196820899999693,"[-0.07581916]",100,53,"colour",51,18,"V","R",NA,"easy","plus","alpha",1,1,"easy"
2,0,"training",44,36,0.617029099999854,"['c']",1,"left","['9']",5,0.123849999999948,"[0.08572951]",100,44,"colour",51,18,"V","R",NA,"hard","plus","alpha",-1,2,"hard"
3,0,"training",36,44,1.59936139999991,"['c']",0,"right","['3']",3,0.366382399999566,"[-0.07231616]",1,44,"colour",51,18,"V","R",NA,"hard","plus","alpha",-1,3,"hard"
4,0,"training",53,27,0.949486600000455,"['c']",1,"left","['0']",6,0.257566000000224,"[0.13105091]",100,53,"colour",51,18,"V","R",NA,"easy","plus","alpha",-1,4,"easy"
5,0,"training",53,27,0.882832299999791,"['c']",1,"left","['0']",6,0.331232900000032,"[0.20425985]",100,53,"colour",51,18,"V","R",NA,"easy","plus","alpha",-1,5,"easy"
6,0,"training",44,36,2.03279740000016,"['n']",0,"left","['9']",5,0.244440100000247,"[-0.03739162]",94,44,"colour",51,18,"V","R",NA,"hard","plus","alpha",1,6,"hard"
7,0,"training",44,36,1.18311180000001,"['c']",1,"left","['9']",5,0.194834599999922,"[0.15800422]",100,44,"colour",51,18,"V","R",NA,"hard","plus","alpha",-1,7,"hard"
8,0,"training",27,53,0.716369400000076,"['n']",1,"right","['9']",5,0.229965200000152,"[-0.11734293]",100,53,"colour",51,18,"V","R",NA,"easy","plus","alpha",1,8,"easy"
9,0,"training",53,27,0.799375200000213,"['c']",1,"left","['9']",5,0.260445899999468,"[0.09086789]",100,53,"colour",51,18,"V","R",NA,"easy","plus","alpha",-1,9,"easy"
10,0,"training",27,53,2.63333340000008,"['n']",1,"right","['9']",5,0.488348900000346,"[-0.2379217]",100,53,"colour",51,18,"V","R",NA,"easy","plus","alpha",1,10,"easy"
11,0,"training",47,33,1.16637709999941,"['c']",1,"left","['0']",6,0.429411600000094,"[0.17551663]",100,47,"colour",51,18,"V","R",NA,"medium","plus","alpha",-1,11,"medium"
12,0,"training",33,47,0.93346560000009,"['n']",1,"right","['9']",5,0.254566500000692,"[-0.05569066]",98,47,"colour",51,18,"V","R",NA,"medium","plus","alpha",1,12,"medium"
13,0,"training",33,47,0.76610460000029,"['n']",1,"right","['9']",5,0.268959900000482,"[-0.10780351]",100,47,"colour",51,18,"V","R",NA,"medium","plus","alpha",1,13,"medium"
14,0,"training",47,33,0.566319300000032,"['c']",1,"left","['9']",5,0.419396199999937,"[0.13360419]",100,47,"colour",51,18,"V","R",NA,"medium","plus","alpha",-1,14,"medium"
15,0,"training",36,44,1.31586229999994,"['c']",0,"right","['3']",3,0.165156700000807,"[0.06280805]",100,44,"colour",51,18,"V","R",NA,"hard","plus","alpha",-1,15,"hard"
16,0,"training",47,33,0.766497800000252,"['c']",1,"left","['0']",6,0.823502899999767,"[0.23798601]",100,47,"colour",51,18,"V","R",NA,"medium","plus","alpha",-1,16,"medium"
17,0,"training",53,27,1.68335550000029,"['n']",0,"left","['9']",5,0.586803799999871,"[0.09007553]",1,53,"colour",51,18,"V","R",NA,"easy","plus","alpha",1,17,"easy"
18,0,"training",47,33,1.2496742000003,"['c']",1,"left","['0']",6,0.296612299999651,"[0.08867049]",100,47,"colour",51,18,"V","R",NA,"medium","plus","alpha",-1,18,"medium"
19,0,"training",36,44,0.749636599999576,"['c']",0,"right","['0']",6,0.150311100000181,"[0.14735621]",100,44,"colour",51,18,"V","R",NA,"hard","plus","alpha",-1,19,"hard"
20,0,"training",33,47,1.11690379999982,"['n']",1,"right","['0']",6,0.123442699999941,"[-0.01795083]",86,47,"colour",51,18,"V","R",NA,"medium","plus","alpha",1,20,"medium"
21,0,"training",53,27,0.466480299999603,"['c']",1,"left","['0']",6,0.139136400000098,"[0.06688177]",100,53,"colour",51,18,"V","R",NA,"easy","plus","alpha",-1,21,"easy"
22,0,"training",44,36,1.05028820000007,"['n']",0,"left","['0']",6,0.130790499999421,"[0.02470973]",8,44,"colour",51,18,"V","R",NA,"hard","plus","alpha",1,22,"hard"
23,0,"training",47,33,0.666555799999514,"['c']",1,"left","['0']",6,0.426556700000219,"[0.19913725]",100,47,"colour",51,18,"V","R",NA,"medium","plus","alpha",-1,23,"medium"
24,0,"training",53,27,0.866554199999882,"['c']",1,"left","['0']",6,0.254229800000758,"[0.16114994]",100,53,"colour",51,18,"V","R",NA,"easy","plus","alpha",-1,24,"easy"
25,0,"training",33,47,1.61588230000052,"['n']",1,"right","['0']",6,0.17083779999939,"[-0.11971638]",100,47,"colour",51,18,"V","R",NA,"medium","plus","alpha",1,25,"medium"
26,0,"training",27,53,1.61679670000012,"['n']",1,"right","['0']",6,0.0905480000001262,"[-0.05170593]",100,53,"colour",51,18,"V","R",NA,"easy","plus","alpha",1,26,"easy"
27,0,"training",47,33,1.44945039999948,"['c']",1,"left","['9']",5,0.228417799999988,"[0.07260811]",100,47,"colour",51,18,"V","R",NA,"medium","plus","alpha",-1,27,"medium"
28,0,"training",44,36,0.816075400000045,"['c']",1,"left","['0']",6,0.114187099999981,"[-0.00061043]",48,44,"colour",51,18,"V","R",NA,"hard","plus","alpha",-1,28,"hard"
29,0,"training",33,47,0.866610799999762,"['c']",0,"right","['3']",3,1.28261699999985,"[-0.29731869]",0,47,"colour",51,18,"V","R",NA,"medium","plus","alpha",-1,29,"medium"
30,0,"training",27,53,1.03265580000061,"['n']",1,"right","['0']",6,0.205212600000777,"[-0.07342555]",100,53,"colour",51,18,"V","R",NA,"easy","plus","alpha",1,30,"easy"
31,0,"training",36,44,0.633234899999479,"['n']",1,"right","['0']",6,0.226817499999925,"[-0.0859587]",100,44,"colour",51,18,"V","R",NA,"hard","plus","alpha",1,31,"hard"
32,0,"training",33,47,1.00003110000034,"['n']",1,"right","['0']",6,0.217338899999959,"[-0.13723116]",100,47,"colour",51,18,"V","R",NA,"medium","plus","alpha",1,32,"medium"
33,0,"training",36,44,0.883225300000049,"['n']",1,"right","['0']",6,0.260341199999857,"[-0.06931299]",99,44,"colour",51,18,"V","R",NA,"hard","plus","alpha",1,33,"hard"
34,0,"training",27,53,0.816811999999118,"['n']",1,"right","['0']",6,0.112826000000496,"[-0.04199967]",99,53,"colour",51,18,"V","R",NA,"easy","plus","alpha",1,34,"easy"
35,0,"training",44,36,0.900111699999798,"['n']",0,"left","['0']",6,0.175826900000175,"[-0.03603593]",96,44,"colour",51,18,"V","R",NA,"hard","plus","alpha",1,35,"hard"
0,1,"training",44,36,0.833671599999434,"['n']",0,"left","['9']",5,0.225390399999924,"[-0.01526244]",76,44,"colour",51,18,"V","R",NA,"hard","plus","alpha",1,36,"hard"
1,1,"training",36,44,1.18331959999978,"['c']",0,"right","['9']",5,0.192497699999876,"[0.06430245]",99,44,"colour",51,18,"V","R",NA,"hard","plus","alpha",-1,37,"hard"
2,1,"training",47,33,0.566786299999876,"['c']",1,"left","['0']",6,0.105599200000142,"[0.02804276]",96,47,"colour",51,18,"V","R",NA,"medium","plus","alpha",-1,38,"medium"
3,1,"training",47,33,0.83284630000071,"['c']",1,"left","['9']",5,0.0752916000001278,"[0.10616559]",100,47,"colour",51,18,"V","R",NA,"medium","plus","alpha",-1,39,"medium"
4,1,"training",47,33,1.51648380000006,"['n']",0,"left","['9']",5,0.1150918000003,"[-0.0205762]",90,47,"colour",51,18,"V","R",NA,"medium","plus","alpha",1,40,"medium"
5,1,"training",47,33,0.832842199999504,"['c']",1,"left","['9']",5,0.244742099999712,"[0.07534954]",100,47,"colour",51,18,"V","R",NA,"medium","plus","alpha",-1,41,"medium"
6,1,"training",36,44,0.79983909999919,"['n']",1,"right","['9']",5,0.226554699999724,"[-0.05399979]",98,44,"colour",51,18,"V","R",NA,"hard","plus","alpha",1,42,"hard"
7,1,"training",27,53,0.916766800000005,"['n']",1,"right","['9']",5,0.300190900000416,"[-0.16348984]",100,53,"colour",51,18,"V","R",NA,"easy","plus","alpha",1,43,"easy"
8,1,"training",33,47,0.800081300000784,"['n']",1,"right","['0']",6,0.279960799999571,"[-0.05776618]",98,47,"colour",51,18,"V","R",NA,"medium","plus","alpha",1,44,"medium"
9,1,"training",33,47,0.982772499999555,"['n']",1,"right","['9']",5,0.237051100000826,"[-0.12654634]",100,47,"colour",51,18,"V","R",NA,"medium","plus","alpha",1,45,"medium"
10,1,"training",27,53,0.900146799999675,"['n']",1,"right","['0']",6,0.310775900000408,"[-0.09939617]",100,53,"colour",51,18,"V","R",NA,"easy","plus","alpha",1,46,"easy"
11,1,"training",53,27,0.950171999999839,"['c']",1,"left","['0']",6,0.203864199999771,"[0.1047024]",100,53,"colour",51,18,"V","R",NA,"easy","plus","alpha",-1,47,"easy"
12,1,"training",53,27,0.550250399999641,"['c']",1,"left","['0']",6,0.357567600000039,"[0.04251817]",93,53,"colour",51,18,"V","R",NA,"easy","plus","alpha",-1,48,"easy"
13,1,"training",33,47,0.982970799999748,"['n']",1,"right","['0']",6,0.19940410000072,"[-0.08739814]",100,47,"colour",51,18,"V","R",NA,"medium","plus","alpha",1,49,"medium"
14,1,"training",44,36,0.700186400000348,"['c']",1,"left","['0']",6,0.187108799999805,"[0.12221407]",100,44,"colour",51,18,"V","R",NA,"hard","plus","alpha",-1,50,"hard"
15,1,"training",27,53,0.766515999999683,"['n']",1,"right","['0']",6,0.108179500000006,"[-0.0715557]",100,53,"colour",51,18,"V","R",NA,"easy","plus","alpha",1,51,"easy"
16,1,"training",33,47,1.59958370000004,"['c']",0,"right","['3']",3,0.0951118999992104,"[0.04936469]",100,47,"colour",51,18,"V","R",NA,"medium","plus","alpha",-1,52,"medium"
17,1,"training",33,47,1.91659580000032,"['n']",1,"right","['9']",5,0.1824016999999,"[-0.14657584]",100,47,"colour",51,18,"V","R",NA,"medium","plus","alpha",1,53,"medium"
18,1,"training",47,33,0.7663706000003,"['n']",0,"left","['3']",3,1.3842254000001,"[0.08755344]",6,47,"colour",51,18,"V","R",NA,"medium","plus","alpha",1,54,"medium"
19,1,"training",27,53,1.14978190000056,"['n']",1,"right","['0']",6,0.633424999999988,"[-0.18018943]",100,53,"colour",51,18,"V","R",NA,"easy","plus","alpha",1,55,"easy"
20,1,"training",27,53,1.13336609999988,"['n']",1,"right","['0']",6,0.266842500000166,"[-0.1175846]",100,53,"colour",51,18,"V","R",NA,"easy","plus","alpha",1,56,"easy"
21,1,"training",36,44,0.699467999999797,"['c']",0,"right","['0']",6,0.267021399999976,"[-0.02752007]",13,44,"colour",51,18,"V","R",NA,"hard","plus","alpha",-1,57,"hard"
22,1,"training",27,53,0.549816399999145,"['n']",1,"right","['0']",6,0.113956099999996,"[-0.09190028]",100,53,"colour",51,18,"V","R",NA,"easy","plus","alpha",1,58,"easy"
23,1,"training",44,36,0.999525399999584,"['c']",1,"left","['0']",6,0.0130428000002212,"[0.05129648]",100,44,"colour",51,18,"V","R",NA,"hard","plus","alpha",-1,59,"hard"
24,1,"training",44,36,1.18335100000058,"['n']",0,"left","['9']",5,0.180884700000206,"[0.0068228]",36,44,"colour",51,18,"V","R",NA,"hard","plus","alpha",1,60,"hard"
25,1,"training",47,33,1.01604090000001,"['c']",1,"left","['0']",6,0.284427999999934,"[0.0917833]",100,47,"colour",51,18,"V","R",NA,"medium","plus","alpha",-1,61,"medium"
26,1,"training",53,27,0.650403499999811,"['n']",0,"left","['0']",6,0.158370699999978,"[-0.06416607]",100,53,"colour",51,18,"V","R",NA,"easy","plus","alpha",1,62,"easy"
27,1,"training",44,36,0.832546000000548,"['n']",0,"left","['9']",5,0.11081220000051,"[-0.02362414]",93,44,"colour",51,18,"V","R",NA,"hard","plus","alpha",1,63,"hard"
28,1,"training",36,44,0.866630200000145,"['n']",1,"right","['0']",6,0.223076099999162,"[-0.0297298]",91,44,"colour",51,18,"V","R",NA,"hard","plus","alpha",1,64,"hard"
29,1,"training",53,27,0.949660299999778,"['c']",1,"left","['0']",6,0.231492400000207,"[0.03231486]",92,53,"colour",51,18,"V","R",NA,"easy","plus","alpha",-1,65,"easy"
30,1,"training",33,47,0.883266799999546,"['n']",1,"right","['9']",5,0.211445799999638,"[-0.02786961]",90,47,"colour",51,18,"V","R",NA,"medium","plus","alpha",1,66,"medium"
31,1,"training",53,27,1.31651010000041,"['c']",1,"left","['9']",5,0.236542399999962,"[0.12657543]",100,53,"colour",51,18,"V","R",NA,"easy","plus","alpha",-1,67,"easy"
32,1,"training",36,44,1.0676682000003,"['n']",1,"right","['0']",6,0.239011399999981,"[-0.06254919]",99,44,"colour",51,18,"V","R",NA,"hard","plus","alpha",1,68,"hard"
33,1,"training",53,27,1.08312360000036,"['c']",1,"left","['0']",6,0.289411199999449,"[0.07215782]",99,53,"colour",51,18,"V","R",NA,"easy","plus","alpha",-1,69,"easy"
34,1,"training",36,44,0.616696600000068,"['n']",1,"right","['0']",6,0.484281200000623,"[-0.16222217]",100,44,"colour",51,18,"V","R",NA,"hard","plus","alpha",1,70,"hard"
35,1,"training",44,36,1.08319570000003,"['c']",1,"left","['0']",6,0.237618499999371,"[0.05589885]",98,44,"colour",51,18,"V","R",NA,"hard","plus","alpha",-1,71,"hard"
0,2,"training",53,27,0.783828600000561,"['c']",1,"left","['0']",6,0.21953829999984,"[0.12617992]",100,53,"colour",51,18,"V","R",NA,"easy","plus","alpha",-1,72,"easy"
1,2,"training",53,27,0.550294100000428,"['c']",1,"left","['0']",6,0.452366399999846,"[0.13011616]",100,53,"colour",51,18,"V","R",NA,"easy","plus","alpha",-1,73,"easy"
2,2,"training",36,44,1.11675229999946,"['n']",1,"right","['0']",6,0.188923499999873,"[-0.05465734]",99,44,"colour",51,18,"V","R",NA,"hard","plus","alpha",1,74,"hard"
3,2,"training",47,33,0.46642410000004,"['c']",1,"left","['0']",6,0.346092699999645,"[0.08936777]",100,47,"colour",51,18,"V","R",NA,"medium","plus","alpha",-1,75,"medium"
4,2,"training",27,53,0.500306199999613,"['n']",1,"right","['0']",6,0.159668299999794,"[-0.12756804]",100,53,"colour",51,18,"V","R",NA,"easy","plus","alpha",1,76,"easy"
5,2,"training",44,36,0.783523999999488,"['c']",1,"left","['0']",6,0.497477099999742,"[0.10553036]",100,44,"colour",51,18,"V","R",NA,"hard","plus","alpha",-1,77,"hard"
6,2,"training",53,27,0.666838000000098,"['c']",1,"left","['0']",6,0.330588900000294,"[0.11268557]",100,53,"colour",51,18,"V","R",NA,"easy","plus","alpha",-1,78,"easy"
7,2,"training",33,47,1.13307020000047,"['n']",1,"right","['0']",6,0.455675000000156,"[-0.01180018]",65,47,"colour",51,18,"V","R",NA,"medium","plus","alpha",1,79,"medium"
8,2,"training",53,27,0.600525800000469,"['c']",1,"left","['9']",5,0.228594499999417,"[0.10199516]",100,53,"colour",51,18,"V","R",NA,"easy","plus","alpha",-1,80,"easy"
9,2,"training",53,27,0.950640900000508,"['c']",1,"left","['8']",4,0.013622999999825,"[0.04608445]",100,53,"colour",51,18,"V","R",NA,"easy","plus","alpha",-1,81,"easy"
10,2,"training",47,33,0.883393400000386,"['c']",1,"left","['0']",6,0.0161513000002742,"[0.05697532]",100,47,"colour",51,18,"V","R",NA,"medium","plus","alpha",-1,82,"medium"
11,2,"training",53,27,0.566978199999539,"['c']",1,"left","['0']",6,0.0645664000003308,"[0.09061349]",100,53,"colour",51,18,"V","R",NA,"easy","plus","alpha",-1,83,"easy"
12,2,"training",44,36,0.966921000000184,"['n']",0,"left","['9']",5,0.206965700000183,"[0.01476869]",24,44,"colour",51,18,"V","R",NA,"hard","plus","alpha",1,84,"hard"
13,2,"training",36,44,0.517074800000046,"['c']",0,"right","['0']",6,0.457327600000099,"[-0.00568681]",42,44,"colour",51,18,"V","R",NA,"hard","plus","alpha",-1,85,"hard"
14,2,"training",27,53,0.667125700000724,"['n']",1,"right","['0']",6,0.195735400000558,"[-0.07344836]",100,53,"colour",51,18,"V","R",NA,"easy","plus","alpha",1,86,"easy"
15,2,"training",47,33,0.967241500000455,"['c']",1,"left","['9']",5,0.0926822999999786,"[0.05692076]",100,47,"colour",51,18,"V","R",NA,"medium","plus","alpha",-1,87,"medium"
16,2,"training",44,36,0.700013200000285,"['c']",1,"left","['0']",6,0.340568800000256,"[0.14352927]",100,44,"colour",51,18,"V","R",NA,"hard","plus","alpha",-1,88,"hard"
17,2,"training",44,36,0.93371980000029,"['c']",1,"left","['0']",6,0.121016199999758,"[0.05511244]",100,44,"colour",51,18,"V","R",NA,"hard","plus","alpha",-1,89,"hard"
18,2,"training",27,53,1.33282679999957,"['n']",1,"right","['0']",6,0.0861064999999144,"[-0.04192726]",99,53,"colour",51,18,"V","R",NA,"easy","plus","alpha",1,90,"easy"
19,2,"training",33,47,0.54992510000011,"['n']",1,"right","['0']",6,0.00439180000012129,"[-0.0409483]",100,47,"colour",51,18,"V","R",NA,"medium","plus","alpha",1,91,"medium"
20,2,"training",33,47,0.600020000000768,"['n']",1,"right","['0']",6,0.563102600000093,"[-0.14047275]",100,47,"colour",51,18,"V","R",NA,"medium","plus","alpha",1,92,"medium"
21,2,"training",47,33,0.699799900000471,"['c']",1,"left","['8']",4,0.424351899999238,"[0.06128219]",97,47,"colour",51,18,"V","R",NA,"medium","plus","alpha",-1,93,"medium"
22,2,"training",33,47,0.768196400000306,"['n']",1,"right","['8']",4,0.128003300000273,"[-0.06711561]",100,47,"colour",51,18,"V","R",NA,"medium","plus","alpha",1,94,"medium"
23,2,"training",47,33,0.716388100000586,"['c']",1,"left","['9']",5,0.0698897000002034,"[0.05987117]",100,47,"colour",51,18,"V","R",NA,"medium","plus","alpha",-1,95,"medium"
24,2,"training",27,53,0.700451800000337,"['n']",1,"right","['9']",5,0.559120200000507,"[-0.17157963]",100,53,"colour",51,18,"V","R",NA,"easy","plus","alpha",1,96,"easy"
25,2,"training",27,53,1.63333939999939,"['n']",1,"right","['9']",5,0.0148527000001195,"[-0.06961654]",100,53,"colour",51,18,"V","R",NA,"easy","plus","alpha",1,97,"easy"
26,2,"training",36,44,0.567467199999555,"['c']",0,"right","['9']",5,0.143258099999912,"[0.05540423]",99,44,"colour",51,18,"V","R",NA,"hard","plus","alpha",-1,98,"hard"
27,2,"training",33,47,0.58328580000034,"['c']",0,"right","['3']",3,0.937497400000211,"[-0.11904119]",1,47,"colour",51,18,"V","R",NA,"medium","plus","alpha",-1,99,"medium"
28,2,"training",33,47,0.699647000000368,"['n']",1,"right","['0']",6,0.447739399999591,"[-0.0499031]",94,47,"colour",51,18,"V","R",NA,"medium","plus","alpha",1,100,"medium"
29,2,"training",47,33,0.934320600000319,"['c']",1,"left","['9']",5,0.143727700000454,"[0.12385878]",100,47,"colour",51,18,"V","R",NA,"medium","plus","alpha",-1,101,"medium"
30,2,"training",44,36,0.666349000000082,"['n']",0,"left","['9']",5,0.358814899999743,"[0.07659458]",1,44,"colour",51,18,"V","R",NA,"hard","plus","alpha",1,102,"hard"
31,2,"training",44,36,1.06678360000024,"['c']",1,"left","['0']",6,0.117022299999917,"[0.09841722]",100,44,"colour",51,18,"V","R",NA,"hard","plus","alpha",-1,103,"hard"
32,2,"training",36,44,0.933720799999719,"['n']",1,"right","['9']",5,0.178760199999488,"[-0.03711853]",96,44,"colour",51,18,"V","R",NA,"hard","plus","alpha",1,104,"hard"
33,2,"training",27,53,0.966788900000211,"['n']",1,"right","['9']",5,0.140713699999651,"[-0.08542573]",100,53,"colour",51,18,"V","R",NA,"easy","plus","alpha",1,105,"easy"
34,2,"training",36,44,0.717013800000132,"['n']",1,"right","['9']",5,0.289716999999655,"[-0.06791189]",99,44,"colour",51,18,"V","R",NA,"hard","plus","alpha",1,106,"hard"
35,2,"training",36,44,0.833442600000126,"['c']",0,"right","['8']",4,0.540225900000223,"[0.00640833]",58,44,"colour",51,18,"V","R",NA,"hard","plus","alpha",-1,107,"hard"
1,0,"training",47,33,3.36671720000049,"['c']",1,"left","['8']",4,2.09277290000045,"[0.33564409]",89,47,"colour",53,18,"V","R",NA,"medium","minus","alpha",-1,1,"medium"
2,0,"training",33,47,4.09943449999992,"['n']",1,"right","['3']",3,1.86828689999948,"[-0.42022295]",94,47,"colour",53,18,"V","R",NA,"medium","minus","alpha",1,2,"medium"
3,0,"training",47,33,1.98327689999951,"['c']",1,"left","['8']",4,2.72993690000021,"[0.3395502]",86,47,"colour",53,18,"V","R",NA,"medium","minus","alpha",-1,3,"medium"
4,0,"training",33,47,1.38297140000032,"['n']",1,"right","['3']",3,0.988678900000195,"[-0.07867541]",67,47,"colour",53,18,"V","R",NA,"medium","minus","alpha",1,4,"medium"
5,0,"training",27,53,1.2830512999999,"['n']",1,"right","['9']",5,1.44895120000001,"[-0.26053198]",88,53,"colour",53,18,"V","R",NA,"easy","minus","alpha",1,5,"easy"
6,0,"training",53,27,1.11699779999981,"['c']",1,"left","['3']",3,0.729669500000455,"[0.2333442]",92,53,"colour",53,18,"V","R",NA,"easy","minus","alpha",-1,6,"easy"
7,0,"training",47,33,1.09967729999971,"['c']",1,"left","['8']",4,0.639746299999388,"[0.13427673]",82,47,"colour",53,18,"V","R",NA,"medium","minus","alpha",-1,7,"medium"
8,0,"training",47,33,1.66678570000022,"['n']",0,"left","['3']",3,0.594863299999815,"[-0.01664533]",55,47,"colour",53,18,"V","R",NA,"medium","minus","alpha",1,8,"medium"
9,0,"training",44,36,0.867058900000302,"['c']",1,"left","['9']",5,0.703583999999864,"[0.27089541]",95,44,"colour",53,18,"V","R",NA,"hard","minus","alpha",-1,9,"hard"
10,0,"training",53,27,1.23340320000079,"['c']",1,"left","['3']",3,0.961718999999903,"[0.30926444]",94,53,"colour",53,18,"V","R",NA,"easy","minus","alpha",-1,10,"easy"
11,0,"training",47,33,1.03345799999988,"['n']",0,"left","['8']",4,0.777396999999837,"[0.16192454]",16,47,"colour",53,18,"V","R",NA,"medium","minus","alpha",1,11,"medium"
12,0,"training",27,53,0.816639599999689,"['n']",1,"right","['3']",3,0.433049500000379,"[-0.10017855]",80,53,"colour",53,18,"V","R",NA,"easy","minus","alpha",1,12,"easy"
13,0,"training",44,36,0.86636290000024,"['c']",1,"left","['9']",5,0.476149699999951,"[0.11437642]",82,44,"colour",53,18,"V","R",NA,"hard","minus","alpha",-1,13,"hard"
14,0,"training",36,44,0.85073310000007,"['n']",1,"right","['8']",4,0.382134299999962,"[-0.06812092]",73,44,"colour",53,18,"V","R",NA,"hard","minus","alpha",1,14,"hard"
15,0,"training",53,27,0.966424899999765,"['c']",1,"left","['0']",6,0.400245599999835,"[0.07735736]",75,53,"colour",53,18,"V","R",NA,"easy","minus","alpha",-1,15,"easy"
16,0,"training",44,36,0.817966099999467,"['n']",0,"left","['8']",4,0.375109599999632,"[0.05258899]",32,44,"colour",53,18,"V","R",NA,"hard","minus","alpha",1,16,"hard"
17,0,"training",33,47,0.816424700000425,"['n']",1,"right","['9']",5,0.342563000000155,"[-0.08844248]",80,47,"colour",53,18,"V","R",NA,"medium","minus","alpha",1,17,"medium"
18,0,"training",44,36,1.54972980000002,"['c']",1,"left","['3']",3,0.202570700000251,"[0.00059808]",50,44,"colour",53,18,"V","R",NA,"hard","minus","alpha",-1,18,"hard"
19,0,"training",44,36,0.900634800000262,"['n']",0,"left","['9']",5,0.238033100000393,"[-0.00426528]",52,44,"colour",53,18,"V","R",NA,"hard","minus","alpha",1,19,"hard"
20,0,"training",47,33,0.816225599999598,"['c']",1,"left","['9']",5,0.547158800000034,"[0.0613836]",68,47,"colour",53,18,"V","R",NA,"medium","minus","alpha",-1,20,"medium"
21,0,"training",53,27,0.782842200000232,"['c']",1,"left","['0']",6,0.333637000000635,"[0.12504092]",88,53,"colour",53,18,"V","R",NA,"easy","minus","alpha",-1,21,"easy"
22,0,"training",27,53,1.01688620000004,"['n']",1,"right","['9']",5,0.231150799999341,"[-0.0522366]",73,53,"colour",53,18,"V","R",NA,"easy","minus","alpha",1,22,"easy"
23,0,"training",36,44,0.800480699999753,"['n']",1,"right","['8']",4,0.261513800000102,"[-0.09082201]",83,44,"colour",53,18,"V","R",NA,"hard","minus","alpha",1,23,"hard"
24,0,"training",36,44,0.916096099999777,"['n']",1,"right","['8']",4,0.261945299999752,"[-0.08886877]",83,44,"colour",53,18,"V","R",NA,"hard","minus","alpha",1,24,"hard"
25,0,"training",27,53,0.666681900000185,"['n']",1,"right","['0']",6,0.248198500000399,"[-0.10748698]",87,53,"colour",53,18,"V","R",NA,"easy","minus","alpha",1,25,"easy"
26,0,"training",53,27,0.74975429999995,"['c']",1,"left","['9']",5,0.255885699999453,"[0.07569565]",79,53,"colour",53,18,"V","R",NA,"easy","minus","alpha",-1,26,"easy"
27,0,"training",36,44,0.700094200000422,"['n']",1,"right","['9']",5,0.22483370000009,"[-0.08346813]",83,44,"colour",53,18,"V","R",NA,"hard","minus","alpha",1,27,"hard"
28,0,"training",36,44,0.750109600000542,"['n']",1,"right","['8']",4,0.273284599999897,"[-0.0905173]",83,44,"colour",53,18,"V","R",NA,"hard","minus","alpha",1,28,"hard"
29,0,"training",36,44,0.767687399999886,"['n']",1,"right","['8']",4,0.302748399999473,"[-0.10702522]",85,44,"colour",53,18,"V","R",NA,"hard","minus","alpha",1,29,"hard"
30,0,"training",44,36,0.983177300000534,"['n']",0,"left","['8']",4,0.226123100000223,"[-0.04923694]",72,44,"colour",53,18,"V","R",NA,"hard","minus","alpha",1,30,"hard"
31,0,"training",33,47,0.716531099999884,"['n']",1,"right","['9']",5,0.212327100000039,"[-0.04360439]",70,47,"colour",53,18,"V","R",NA,"medium","minus","alpha",1,31,"medium"
32,0,"training",53,27,0.64975990000039,"['c']",1,"left","['0']",6,0.265038700000332,"[0.10845937]",87,53,"colour",53,18,"V","R",NA,"easy","minus","alpha",-1,32,"easy"
33,0,"training",33,47,0.8500168999999,"['n']",1,"right","['0']",6,0.331982600000629,"[-0.12377461]",87,47,"colour",53,18,"V","R",NA,"medium","minus","alpha",1,33,"medium"
34,0,"training",27,53,0.63336849999996,"['n']",1,"right","['9']",5,0.204994599999736,"[-0.09054445]",86,53,"colour",53,18,"V","R",NA,"easy","minus","alpha",1,34,"easy"
35,0,"training",27,53,0.583770000000186,"['n']",1,"right","['0']",6,0.188631299999543,"[-0.13419174]",94,53,"colour",53,18,"V","R",NA,"easy","minus","alpha",1,35,"easy"
0,1,"training",33,47,3.83337380000012,"['c']",0,"right","['9']",5,0.856451700000434,"[-0.12395628]",23,47,"colour",53,18,"V","R",NA,"medium","minus","alpha",-1,36,"medium"
1,1,"training",53,27,0.650189500000124,"['c']",1,"left","['0']",6,0.147419599999921,"[0.07451125]",85,53,"colour",53,18,"V","R",NA,"easy","minus","alpha",-1,37,"easy"
2,1,"training",36,44,0.816308700000263,"['n']",1,"right","['9']",5,0.18038069999966,"[-0.05562534]",76,44,"colour",53,18,"V","R",NA,"hard","minus","alpha",1,38,"hard"
3,1,"training",36,44,0.783026500000233,"['n']",1,"right","['9']",5,0.245387099999789,"[-0.02846053]",63,44,"colour",53,18,"V","R",NA,"hard","minus","alpha",1,39,"hard"
4,1,"training",47,33,0.699681699999928,"['c']",1,"left","['0']",6,0.223451899999418,"[0.06360684]",77,47,"colour",53,18,"V","R",NA,"medium","minus","alpha",-1,40,"medium"
5,1,"training",27,53,0.66664739999942,"['n']",1,"right","['0']",6,0.274639899999784,"[-0.14566939]",92,53,"colour",53,18,"V","R",NA,"easy","minus","alpha",1,41,"easy"
6,1,"training",33,47,0.999613300000419,"['c']",0,"right","['9']",5,0.310968999999204,"[-0.0285101]",39,47,"colour",53,18,"V","R",NA,"medium","minus","alpha",-1,42,"medium"
7,1,"training",44,36,0.733536800000365,"['c']",1,"left","['8']",4,0.292605099999491,"[0.03886378]",66,44,"colour",53,18,"V","R",NA,"hard","minus","alpha",-1,43,"hard"
8,1,"training",36,44,0.883567399999265,"['n']",1,"right","['0']",6,0.181210400000055,"[-0.09907399]",89,44,"colour",53,18,"V","R",NA,"hard","minus","alpha",1,44,"hard"
9,1,"training",44,36,1.0334240000002,"['n']",0,"left","['8']",4,0.307909199999813,"[-0.06533297]",74,44,"colour",53,18,"V","R",NA,"hard","minus","alpha",1,45,"hard"
10,1,"training",44,36,0.833871099999669,"['c']",1,"left","['9']",5,0.221729699999742,"[0.11784854]",90,44,"colour",53,18,"V","R",NA,"hard","minus","alpha",-1,46,"hard"
11,1,"training",47,33,0.73312259999966,"['c']",1,"left","['9']",5,0.166554899999937,"[0.09322649]",89,47,"colour",53,18,"V","R",NA,"medium","minus","alpha",-1,47,"medium"
12,1,"training",27,53,0.616527600000154,"['n']",1,"right","['0']",6,0.110864999999649,"[-0.0899732]",92,53,"colour",53,18,"V","R",NA,"easy","minus","alpha",1,48,"easy"
13,1,"training",53,27,0.600165400000151,"['c']",1,"left","['0']",6,0.297764300000381,"[0.11716555]",87,53,"colour",53,18,"V","R",NA,"easy","minus","alpha",-1,49,"easy"
14,1,"training",53,27,0.683786500000679,"['c']",1,"left","['0']",6,0.194136700000854,"[0.11102792]",91,53,"colour",53,18,"V","R",NA,"easy","minus","alpha",-1,50,"easy"
15,1,"training",53,27,0.700267500000336,"['c']",1,"left","['0']",6,0.141567499999837,"[0.11669431]",94,53,"colour",53,18,"V","R",NA,"easy","minus","alpha",-1,51,"easy"
16,1,"training",27,53,0.766805600000225,"['c']",0,"right","['0']",6,0.192723699999988,"[0.03766603]",68,53,"colour",53,18,"V","R",NA,"easy","minus","alpha",-1,52,"easy"
17,1,"training",47,33,0.717169999999896,"['c']",1,"left","['9']",5,0.139787600000091,"[0.10467453]",93,47,"colour",53,18,"V","R",NA,"medium","minus","alpha",-1,53,"medium"
18,1,"training",36,44,0.816865399999188,"['c']",0,"right","['9']",5,0.300519499999609,"[0.12851246]",89,44,"colour",53,18,"V","R",NA,"hard","minus","alpha",-1,54,"hard"
19,1,"training",47,33,1.18310620000011,"['c']",1,"left","['9']",5,0.105200399999376,"[0.12016344]",97,47,"colour",53,18,"V","R",NA,"medium","minus","alpha",-1,55,"medium"
20,1,"training",36,44,0.850207500000579,"['n']",1,"right","['9']",5,0.138039999999819,"[-0.09508927]",91,44,"colour",53,18,"V","R",NA,"hard","minus","alpha",1,56,"hard"
21,1,"training",27,53,0.700060400000439,"['n']",1,"right","['0']",6,0.143525500000578,"[-0.01703088]",60,53,"colour",53,18,"V","R",NA,"easy","minus","alpha",1,57,"easy"
22,1,"training",33,47,1.35017570000036,"['n']",1,"right","['9']",5,0.0993520000001809,"[-0.04559631]",79,47,"colour",53,18,"V","R",NA,"medium","minus","alpha",1,58,"medium"
23,1,"training",53,27,1.29941419999977,"['c']",1,"left","['9']",5,0.0670659999996133,"[0.04497366]",83,53,"colour",53,18,"V","R",NA,"easy","minus","alpha",-1,59,"easy"
24,1,"training",44,36,0.867102100000011,"['n']",0,"left","['9']",5,0.141344599999684,"[-0.03170374]",68,44,"colour",53,18,"V","R",NA,"hard","minus","alpha",1,60,"hard"
25,1,"training",44,36,0.883336500000041,"['c']",1,"left","['9']",5,0.155482099999972,"[0.07535875]",85,44,"colour",53,18,"V","R",NA,"hard","minus","alpha",-1,61,"hard"
26,1,"training",27,53,0.80015640000056,"['n']",1,"right","['9']",5,0.108402799999567,"[-0.06634012]",86,53,"colour",53,18,"V","R",NA,"easy","minus","alpha",1,62,"easy"
27,1,"training",53,27,0.849889399999483,"['c']",1,"left","['0']",6,0.253600899999583,"[0.1819694]",96,53,"colour",53,18,"V","R",NA,"easy","minus","alpha",-1,63,"easy"
28,1,"training",33,47,1.14936499999931,"['n']",1,"right","['9']",5,0.19692859999941,"[-0.07746433]",83,47,"colour",53,18,"V","R",NA,"medium","minus","alpha",1,64,"medium"
29,1,"training",44,36,0.900025700000697,"['c']",1,"left","['8']",4,0.224309499999436,"[0.05306592]",73,44,"colour",53,18,"V","R",NA,"hard","minus","alpha",-1,65,"hard"
30,1,"training",47,33,1.06699700000081,"['c']",1,"left","['0']",6,0.172311000000263,"[0.12178997]",93,47,"colour",53,18,"V","R",NA,"medium","minus","alpha",-1,66,"medium"
31,1,"training",27,53,1.14986190000036,"['n']",1,"right","['0']",6,0.190125199999784,"[-0.06883799]",80,53,"colour",53,18,"V","R",NA,"easy","minus","alpha",1,67,"easy"
32,1,"training",36,44,1.00056180000047,"['n']",1,"right","['9']",5,0.237973700000111,"[-0.14393531]",93,44,"colour",53,18,"V","R",NA,"hard","minus","alpha",1,68,"hard"
33,1,"training",33,47,0.716525700000602,"['n']",1,"right","['9']",5,0.302976800000579,"[-0.07093007]",76,47,"colour",53,18,"V","R",NA,"medium","minus","alpha",1,69,"medium"
34,1,"training",47,33,0.999847999999474,"['c']",1,"left","['9']",5,0.1379594,"[0.01656475]",60,47,"colour",53,18,"V","R",NA,"medium","minus","alpha",-1,70,"medium"
35,1,"training",33,47,0.633189700000003,"['n']",1,"right","['0']",6,0.138237099999969,"[-0.09525631]",91,47,"colour",53,18,"V","R",NA,"medium","minus","alpha",1,71,"medium"
0,2,"training",47,33,2.25108459999956,"['c']",1,"left","['3']",3,0.0763968000001114,"[0.06137088]",88,47,"colour",53,18,"V","R",NA,"medium","minus","alpha",-1,72,"medium"
1,2,"training",27,53,0.750335200000336,"['n']",1,"right","['0']",6,0.0664506999992227,"[-0.0661534]",91,53,"colour",53,18,"V","R",NA,"easy","minus","alpha",1,73,"easy"
2,2,"training",44,36,1.11683149999953,"['n']",0,"left","['9']",5,0.22695610000028,"[-0.01581331]",57,44,"colour",53,18,"V","R",NA,"hard","minus","alpha",1,74,"hard"
3,2,"training",33,47,0.883001000000149,"['n']",1,"right","['0']",6,0.0539364999995087,"[-0.05725723]",90,47,"colour",53,18,"V","R",NA,"medium","minus","alpha",1,75,"medium"
4,2,"training",33,47,2.46650039999986,"['n']",1,"right","['3']",3,0.153017900000123,"[-0.03221145]",68,47,"colour",53,18,"V","R",NA,"medium","minus","alpha",1,76,"medium"
5,2,"training",53,27,0.833244000000377,"['c']",1,"left","['0']",6,0.177358500000082,"[0.07532614]",83,53,"colour",53,18,"V","R",NA,"easy","minus","alpha",-1,77,"easy"
6,2,"training",36,44,0.866901999999754,"['n']",1,"right","['9']",5,0.175045500000124,"[-0.05950451]",78,44,"colour",53,18,"V","R",NA,"hard","minus","alpha",1,78,"hard"
7,2,"training",47,33,0.950583899999401,"['c']",1,"left","['0']",6,0.0894098999997368,"[0.09415443]",94,47,"colour",53,18,"V","R",NA,"medium","minus","alpha",-1,79,"medium"
8,2,"training",33,47,0.949977000000217,"['n']",1,"right","['8']",4,0.0950181999996857,"[-0.04805125]",80,47,"colour",53,18,"V","R",NA,"medium","minus","alpha",1,80,"medium"
9,2,"training",47,33,0.932951699999649,"['c']",1,"left","['0']",6,0.141319500000463,"[0.06458304]",82,47,"colour",53,18,"V","R",NA,"medium","minus","alpha",-1,81,"medium"
10,2,"training",44,36,0.966801399999895,"['c']",1,"left","['3']",3,0.160407899999882,"[0.07681017]",85,44,"colour",53,18,"V","R",NA,"hard","minus","alpha",-1,82,"hard"
11,2,"training",44,36,0.883076199999778,"['c']",1,"left","['9']",5,0.277944700000262,"[0.0223703]",59,44,"colour",53,18,"V","R",NA,"hard","minus","alpha",-1,83,"hard"
12,2,"training",33,47,0.800498700000389,"['n']",1,"right","['0']",6,0.0502751000003627,"[-0.04903646]",88,47,"colour",53,18,"V","R",NA,"medium","minus","alpha",1,84,"medium"
13,2,"training",27,53,0.683317500000157,"['n']",1,"right","['0']",6,0.0605168000001868,"[-0.03412914]",78,53,"colour",53,18,"V","R",NA,"easy","minus","alpha",1,85,"easy"
14,2,"training",27,53,0.683641999999963,"['n']",1,"right","['0']",6,0.0380204000002777,"[-0.0625967]",95,53,"colour",53,18,"V","R",NA,"easy","minus","alpha",1,86,"easy"
15,2,"training",36,44,0.700230500000544,"['n']",1,"right","['0']",6,0.0237085999997362,"[-0.06566308]",98,44,"colour",53,18,"V","R",NA,"hard","minus","alpha",1,87,"hard"
17,2,"training",36,44,1.16582560000006,"['n']",1,"right","['8']",4,0.156394500000715,"[-0.12225025]",94,44,"colour",53,18,"V","R",NA,"hard","minus","alpha",1,89,"hard"
18,2,"training",33,47,0.700583700000607,"['n']",1,"right","['0']",6,0.0333331000001635,"[-0.06491481]",96,47,"colour",53,18,"V","R",NA,"medium","minus","alpha",1,90,"medium"
19,2,"training",44,36,0.983460299999933,"['c']",1,"left","['0']",6,0.0164271000003282,"[0.0531683]",98,44,"colour",53,18,"V","R",NA,"hard","minus","alpha",-1,91,"hard"
20,2,"training",44,36,0.966826100000617,"['c']",1,"left","['9']",5,0.113070600000356,"[0.0570995]",82,44,"colour",53,18,"V","R",NA,"hard","minus","alpha",-1,92,"hard"
21,2,"training",47,33,0.783445499999289,"['c']",1,"left","['0']",6,1.07657749999998,"[0.03300329]",57,47,"colour",53,18,"V","R",NA,"medium","minus","alpha",-1,93,"medium"
22,2,"training",53,27,0.68312270000024,"['c']",1,"left","['0']",6,0.0134202999997797,"[0.04049574]",96,53,"colour",53,18,"V","R",NA,"easy","minus","alpha",-1,94,"easy"
23,2,"training",53,27,0.61696160000065,"['c']",1,"left","['0']",6,0.0435824000005596,"[0.03752911]",83,53,"colour",53,18,"V","R",NA,"easy","minus","alpha",-1,95,"easy"
24,2,"training",36,44,0.883564399999159,"['n']",1,"right","['8']",4,0.0781956999999238,"[-0.08487823]",94,44,"colour",53,18,"V","R",NA,"hard","minus","alpha",1,96,"hard"
25,2,"training",27,53,0.733329199999389,"['n']",1,"right","['0']",6,0.084962899999482,"[-0.08410844]",93,53,"colour",53,18,"V","R",NA,"easy","minus","alpha",1,97,"easy"
26,2,"training",36,44,1.88280560000021,"['c']",0,"right","['8']",4,0.117986000000201,"[0.08621106]",91,44,"colour",53,18,"V","R",NA,"hard","minus","alpha",-1,98,"hard"
27,2,"training",27,53,0.699747900000148,"['n']",1,"right","['0']",6,0.0929747000000134,"[-0.09585822]",94,53,"colour",53,18,"V","R",NA,"easy","minus","alpha",1,99,"easy"
28,2,"training",53,27,0.75001919999977,"['c']",1,"left","['0']",6,0.0826576999997997,"[0.07609455]",92,53,"colour",53,18,"V","R",NA,"easy","minus","alpha",-1,100,"easy"
29,2,"training",33,47,0.933716900000036,"['n']",1,"right","['0']",6,0.0574860999995508,"[-0.05613398]",89,47,"colour",53,18,"V","R",NA,"medium","minus","alpha",1,101,"medium"
30,2,"training",44,36,0.750393499999518,"['c']",1,"left","['0']",6,0.0805613000002268,"[0.06556753]",89,44,"colour",53,18,"V","R",NA,"hard","minus","alpha",-1,102,"hard"
31,2,"training",36,44,0.833419399999912,"['c']",0,"right","['8']",4,0.0595009999997274,"[-0.01512276]",36,44,"colour",53,18,"V","R",NA,"hard","minus","alpha",-1,103,"hard"
32,2,"training",47,33,1.24964319999981,"['c']",1,"left","['3']",3,0.694516499999736,"[0.05385575]",64,47,"colour",53,18,"V","R",NA,"medium","minus","alpha",-1,104,"medium"
33,2,"training",47,33,1.49960339999961,"['n']",0,"left","['9']",5,0.326251200000115,"[-0.06652761]",74,47,"colour",53,18,"V","R",NA,"medium","minus","alpha",1,105,"medium"
34,2,"training",27,53,0.716429899999639,"['n']",1,"right","['0']",6,0.0999019000000771,"[-0.12056552]",97,53,"colour",53,18,"V","R",NA,"easy","minus","alpha",1,106,"easy"
35,2,"training",53,27,0.716604799999914,"['c']",1,"left","['0']",6,0.0347946000001684,"[0.0056137]",57,53,"colour",53,18,"V","R",NA,"easy","minus","alpha",-1,107,"easy"
0,0,"training",57,23,2.01662119999946,"['c']",1,"left","['9']",5,0.96876919999977,"[0.02071661]",68,57,"shape",53,18,"V","R",NA,"medium","plus","alpha",-1,0,"medium"
1,0,"training",62,18,0.933689299999969,"['c']",1,"left","['0']",6,0.227991900000234,"[0.11084691]",100,62,"shape",53,18,"V","R",NA,"easy","plus","alpha",-1,1,"easy"
2,0,"training",18,62,0.983746099999735,"['n']",1,"right","['0']",6,0.170923600000606,"[-0.10928252]",100,62,"shape",53,18,"V","R",NA,"easy","plus","alpha",1,2,"easy"
3,0,"training",62,18,0.898783200000253,"['c']",1,"left","['0']",6,0.111043300000347,"[0.08671137]",100,62,"shape",53,18,"V","R",NA,"easy","plus","alpha",-1,3,"easy"
4,0,"training",18,62,0.867392699999982,"['n']",1,"right","['0']",6,0.0795269000000189,"[-0.04027136]",99,62,"shape",53,18,"V","R",NA,"easy","plus","alpha",1,4,"easy"
5,0,"training",49,31,0.817416500000036,"['c']",1,"left","['9']",5,0.0990181000006487,"[0.04266589]",99,49,"shape",53,18,"V","R",NA,"hard","plus","alpha",-1,5,"hard"
6,0,"training",62,18,0.783700500000123,"['c']",1,"left","['0']",6,0.199178899999424,"[0.03918889]",96,62,"shape",53,18,"V","R",NA,"easy","plus","alpha",-1,6,"easy"
7,0,"training",23,57,0.849408200000653,"['n']",1,"right","['0']",6,0.0690576999995756,"[-0.08557564]",100,57,"shape",53,18,"V","R",NA,"medium","plus","alpha",1,7,"medium"
8,0,"training",49,31,0.933066499999768,"['c']",1,"left","['0']",6,0.0767635000001974,"[0.03105077]",98,49,"shape",53,18,"V","R",NA,"hard","plus","alpha",-1,8,"hard"
9,0,"training",62,18,0.850526299999729,"['c']",1,"left","['0']",6,0.0309557000000495,"[0.04423535]",100,62,"shape",53,18,"V","R",NA,"easy","plus","alpha",-1,9,"easy"
10,0,"training",18,62,0.699861999999484,"['n']",1,"right","['0']",6,0.0493341000001237,"[-0.08177296]",100,62,"shape",53,18,"V","R",NA,"easy","plus","alpha",1,10,"easy"
11,0,"training",18,62,0.783984599999712,"['n']",1,"right","['0']",6,0.0636243999997532,"[-0.03682542]",99,62,"shape",53,18,"V","R",NA,"easy","plus","alpha",1,11,"easy"
12,0,"training",31,49,1.33399449999979,"['n']",1,"right","['0']",6,0.0311701000000539,"[-0.06646468]",100,49,"shape",53,18,"V","R",NA,"hard","plus","alpha",1,12,"hard"
13,0,"training",57,23,0.850375899999563,"['c']",1,"left","['0']",6,0.0915998999998919,"[0.01997863]",91,57,"shape",53,18,"V","R",NA,"medium","plus","alpha",-1,13,"medium"
14,0,"training",62,18,0.815804000000753,"['n']",0,"left","['0']",6,0.0147305000000415,"[-0.03677888]",100,62,"shape",53,18,"V","R",NA,"easy","plus","alpha",1,14,"easy"
15,0,"training",31,49,0.783609999999499,"['n']",1,"right","['0']",6,0.0701725999997507,"[-0.0323943]",99,49,"shape",53,18,"V","R",NA,"hard","plus","alpha",1,15,"hard"
16,0,"training",18,62,0.74980080000023,"['n']",1,"right","['0']",6,0.0450863000005484,"[-0.06760637]",100,62,"shape",53,18,"V","R",NA,"easy","plus","alpha",1,16,"easy"
17,0,"training",31,49,0.749684100000195,"['n']",1,"right","['0']",6,0.0366118000001734,"[-0.06470727]",100,49,"shape",53,18,"V","R",NA,"hard","plus","alpha",1,17,"hard"
18,0,"training",49,31,0.86749300000065,"['n']",0,"left","['0']",6,0.0483676999992895,"[-0.07970298]",100,49,"shape",53,18,"V","R",NA,"hard","plus","alpha",1,18,"hard"
19,0,"training",57,23,0.867125300000225,"['c']",1,"left","['0']",6,0.779198299999734,"[0.15892892]",100,57,"shape",53,18,"V","R",NA,"medium","plus","alpha",-1,19,"medium"
20,0,"training",57,23,1.09951750000073,"['n']",0,"left","['0']",6,0.0875111000004836,"[-0.02106901]",93,57,"shape",53,18,"V","R",NA,"medium","plus","alpha",1,20,"medium"
21,0,"training",49,31,0.800481899999795,"['n']",0,"left","['0']",6,0.0353880000002391,"[-0.04862657]",100,49,"shape",53,18,"V","R",NA,"hard","plus","alpha",1,21,"hard"
22,0,"training",31,49,1.01684490000025,"['n']",1,"right","['8']",4,0.0570127000000866,"[-0.0822497]",100,49,"shape",53,18,"V","R",NA,"hard","plus","alpha",1,22,"hard"
23,0,"training",49,31,1.03324720000001,"['c']",1,"left","['0']",6,0.220675500000652,"[0.07104873]",100,49,"shape",53,18,"V","R",NA,"hard","plus","alpha",-1,23,"hard"
24,0,"training",23,57,0.833724999999504,"['n']",1,"right","['0']",6,0.0736621999994895,"[-0.05660783]",100,57,"shape",53,18,"V","R",NA,"medium","plus","alpha",1,24,"medium"
25,0,"training",23,57,0.83249700000033,"['n']",1,"right","['0']",6,0.644766200000049,"[-0.13400705]",100,57,"shape",53,18,"V","R",NA,"medium","plus","alpha",1,25,"medium"
26,0,"training",18,62,0.933630900000026,"['n']",1,"right","['0']",6,0.0289802000006603,"[-0.06606735]",100,62,"shape",53,18,"V","R",NA,"easy","plus","alpha",1,26,"easy"
27,0,"training",23,57,1.30020450000029,"['n']",1,"right","['0']",6,0.00716389999979583,"[-0.03180289]",100,57,"shape",53,18,"V","R",NA,"medium","plus","alpha",1,27,"medium"
28,0,"training",23,57,0.733686500000658,"['n']",1,"right","['0']",6,0.0650544999998601,"[-0.09605673]",100,57,"shape",53,18,"V","R",NA,"medium","plus","alpha",1,28,"medium"
29,0,"training",57,23,0.784075900000062,"['n']",0,"left","['0']",6,0.0786969999999201,"[-0.04038318]",99,57,"shape",53,18,"V","R",NA,"medium","plus","alpha",1,29,"medium"
30,0,"training",31,49,0.850358400000005,"['c']",0,"right","['0']",6,0.0252515000001949,"[0.05845824]",100,49,"shape",53,18,"V","R",NA,"hard","plus","alpha",-1,30,"hard"
31,0,"training",31,49,0.699959999999919,"['c']",0,"right","['0']",6,0.0752691999996387,"[0.0580818]",100,49,"shape",53,18,"V","R",NA,"hard","plus","alpha",-1,31,"hard"
32,0,"training",57,23,0.683671300000242,"['c']",1,"left","['0']",6,0.100163100000827,"[0.08777135]",100,57,"shape",53,18,"V","R",NA,"medium","plus","alpha",-1,32,"medium"
33,0,"training",62,18,0.716562999999951,"['c']",1,"left","['0']",6,0.0510991999999533,"[0.02669238]",99,62,"shape",53,18,"V","R",NA,"easy","plus","alpha",-1,33,"easy"
34,0,"training",23,57,0.816174800000226,"['n']",1,"right","['0']",6,0.0322005999996691,"[-0.07568856]",100,57,"shape",53,18,"V","R",NA,"medium","plus","alpha",1,34,"medium"
35,0,"training",49,31,0.716409999999996,"['n']",0,"left","['0']",6,0.065668100000039,"[-0.01158888]",84,49,"shape",53,18,"V","R",NA,"hard","plus","alpha",1,35,"hard"
0,1,"training",31,49,1.73389130000032,"['c']",0,"right","['0']",6,0.0509578999999576,"[0.04962129]",100,49,"shape",53,18,"V","R",NA,"hard","plus","alpha",-1,36,"hard"
1,1,"training",31,49,1.33342439999979,"['n']",1,"right","['0']",6,0.0113431999998284,"[-0.02637136]",100,49,"shape",53,18,"V","R",NA,"hard","plus","alpha",1,37,"hard"
2,1,"training",18,62,0.650722700000188,"['n']",1,"right","['0']",6,0.0722455999994054,"[-0.07087396]",100,62,"shape",53,18,"V","R",NA,"easy","plus","alpha",1,38,"easy"
3,1,"training",31,49,0.799718000000212,"['c']",0,"right","['0']",6,0.700534399999924,"[0.13590351]",100,49,"shape",53,18,"V","R",NA,"hard","plus","alpha",-1,39,"hard"
4,1,"training",49,31,0.85012099999949,"['c']",1,"left","['9']",5,0.085570799999914,"[0.03826944]",99,49,"shape",53,18,"V","R",NA,"hard","plus","alpha",-1,40,"hard"
5,1,"training",23,57,1.13388279999981,"['n']",1,"right","['0']",6,0.0833452000006218,"[-0.02269713]",94,57,"shape",53,18,"V","R",NA,"medium","plus","alpha",1,41,"medium"
6,1,"training",57,23,0.833559000000605,"['c']",1,"left","['0']",6,0.102142699999604,"[0.04681025]",99,57,"shape",53,18,"V","R",NA,"medium","plus","alpha",-1,42,"medium"
7,1,"training",57,23,0.816560000000209,"['c']",1,"left","['0']",6,0.0331877999997232,"[0.05328754]",100,57,"shape",53,18,"V","R",NA,"medium","plus","alpha",-1,43,"medium"
8,1,"training",49,31,0.866901099999268,"['c']",1,"left","['0']",6,0.0367978000003859,"[0.06402432]",100,49,"shape",53,18,"V","R",NA,"hard","plus","alpha",-1,44,"hard"
9,1,"training",18,62,0.733885399999963,"['n']",1,"right","['0']",6,0.0456867000002603,"[-0.04322387]",100,62,"shape",53,18,"V","R",NA,"easy","plus","alpha",1,45,"easy"
10,1,"training",57,23,0.683737199999996,"['c']",1,"left","['0']",6,0.064061799999763,"[0.13687855]",100,57,"shape",53,18,"V","R",NA,"medium","plus","alpha",-1,46,"medium"
11,1,"training",31,49,0.700479099999939,"['n']",1,"right","['0']",6,0.00896689999990485,"[-0.05662647]",100,49,"shape",53,18,"V","R",NA,"hard","plus","alpha",1,47,"hard"
12,1,"training",49,31,0.767377800000759,"['c']",1,"left","['0']",6,0.0493667000000642,"[0.04332762]",100,49,"shape",53,18,"V","R",NA,"hard","plus","alpha",-1,48,"hard"
13,1,"training",62,18,1.19930320000003,"['c']",1,"left","['0']",6,0.12681369999973,"[0.10575625]",100,62,"shape",53,18,"V","R",NA,"easy","plus","alpha",-1,49,"easy"
14,1,"training",57,23,0.699992799999563,"['c']",1,"left","['0']",6,0.013323300000593,"[0.0475998]",100,57,"shape",53,18,"V","R",NA,"medium","plus","alpha",-1,50,"medium"
15,1,"training",62,18,0.716661299999942,"['c']",1,"left","['0']",6,0.0395876999991742,"[0.07529366]",100,62,"shape",53,18,"V","R",NA,"easy","plus","alpha",-1,51,"easy"
16,1,"training",23,57,1.0337696000006,"['n']",1,"right","['0']",6,0.0758239999995567,"[-0.0349159]",99,57,"shape",53,18,"V","R",NA,"medium","plus","alpha",1,52,"medium"
17,1,"training",18,62,0.866761800000859,"['c']",0,"right","['0']",6,0.541548899999725,"[-0.18265499]",0,62,"shape",53,18,"V","R",NA,"easy","plus","alpha",-1,53,"easy"
18,1,"training",31,49,0.783516899999995,"['c']",0,"right","['0']",6,0.648023699999612,"[-0.05556577]",8,49,"shape",53,18,"V","R",NA,"hard","plus","alpha",-1,54,"hard"
19,1,"training",18,62,1.48326570000063,"['n']",1,"right","['0']",6,0.0662327999998524,"[-0.08329691]",100,62,"shape",53,18,"V","R",NA,"easy","plus","alpha",1,55,"easy"
20,1,"training",31,49,0.767189799999869,"['n']",1,"right","['0']",6,0.0325835999992705,"[-0.04877556]",100,49,"shape",53,18,"V","R",NA,"hard","plus","alpha",1,56,"hard"
21,1,"training",49,31,0.666674799999782,"['c']",1,"left","['0']",6,0.10831749999943,"[0.07746789]",100,49,"shape",53,18,"V","R",NA,"hard","plus","alpha",-1,57,"hard"
22,1,"training",18,62,0.783461200000602,"['n']",1,"right","['0']",6,0.0795205000003989,"[-0.0617276]",100,62,"shape",53,18,"V","R",NA,"easy","plus","alpha",1,58,"easy"
23,1,"training",57,23,1.13404560000072,"['c']",1,"left","['8']",4,0.630929800000558,"[0.0801781]",97,57,"shape",53,18,"V","R",NA,"medium","plus","alpha",-1,59,"medium"
24,1,"training",23,57,1.20024869999997,"['c']",0,"right","['8']",4,0.165270699999382,"[-0.06439035]",0,57,"shape",53,18,"V","R",NA,"medium","plus","alpha",-1,60,"medium"
25,1,"training",49,31,0.816672699999799,"['c']",1,"left","['0']",6,0.0369086000000607,"[0.04209747]",100,49,"shape",53,18,"V","R",NA,"hard","plus","alpha",-1,61,"hard"
26,1,"training",23,57,0.834089899999526,"['n']",1,"right","['0']",6,0.0819337000002633,"[-0.04882476]",100,57,"shape",53,18,"V","R",NA,"medium","plus","alpha",1,62,"medium"
27,1,"training",62,18,0.733582999999271,"['c']",1,"left","['0']",6,0.0248011000003316,"[0.03288178]",100,62,"shape",53,18,"V","R",NA,"easy","plus","alpha",-1,63,"easy"
28,1,"training",57,23,0.982909399999699,"['c']",1,"left","['0']",6,3.59106519999932,"[0.39813056]",100,57,"shape",53,18,"V","R",NA,"medium","plus","alpha",-1,64,"medium"
29,1,"training",18,62,1.53364570000031,"['n']",1,"right","['0']",6,0.201306500000101,"[-0.09206906]",100,62,"shape",53,18,"V","R",NA,"easy","plus","alpha",1,65,"easy"
30,1,"training",23,57,2.01641220000056,"['n']",1,"right","['0']",6,0.360221199999614,"[-0.06860396]",98,57,"shape",53,18,"V","R",NA,"medium","plus","alpha",1,66,"medium"
31,1,"training",62,18,0.899937999999565,"['c']",1,"left","['0']",6,0.0774527999992642,"[0.11056581]",100,62,"shape",53,18,"V","R",NA,"easy","plus","alpha",-1,67,"easy"
32,1,"training",49,31,1.26640419999967,"['n']",0,"left","['0']",6,0.0309230000002572,"[-0.04830666]",100,49,"shape",53,18,"V","R",NA,"hard","plus","alpha",1,68,"hard"
33,1,"training",23,57,0.783113100000264,"['n']",1,"right","['0']",6,0.0133401999992202,"[-0.04411495]",100,57,"shape",53,18,"V","R",NA,"medium","plus","alpha",1,69,"medium"
34,1,"training",62,18,0.783003599999574,"['c']",1,"left","['0']",6,0.028972099999919,"[0.04114569]",100,62,"shape",53,18,"V","R",NA,"easy","plus","alpha",-1,70,"easy"
35,1,"training",62,18,0.73377199999959,"['c']",1,"left","['0']",6,0.0381901999999172,"[0.03828053]",100,62,"shape",53,18,"V","R",NA,"easy","plus","alpha",-1,71,"easy"
0,2,"training",62,18,0.650005400000737,"['c']",1,"left","['0']",6,0.153141199999482,"[0.10447269]",100,62,"shape",53,18,"V","R",NA,"easy","plus","alpha",-1,72,"easy"
1,2,"training",31,49,0.867065599999478,"['c']",0,"right","['0']",6,0.031233799999427,"[0.05765114]",100,49,"shape",53,18,"V","R",NA,"hard","plus","alpha",-1,73,"hard"
2,2,"training",23,57,1.03451150000001,"['c']",0,"right","['0']",6,0.156333400000221,"[0.02866534]",93,57,"shape",53,18,"V","R",NA,"medium","plus","alpha",-1,74,"medium"
3,2,"training",62,18,0.616831899999852,"['c']",1,"left","['0']",6,0.196735000000444,"[0.13985302]",100,62,"shape",53,18,"V","R",NA,"easy","plus","alpha",-1,75,"easy"
4,2,"training",31,49,0.983518099999856,"['n']",1,"right","['9']",5,0.109009499999956,"[-0.13181252]",100,49,"shape",53,18,"V","R",NA,"hard","plus","alpha",1,76,"hard"
5,2,"training",49,31,0.70044229999985,"['c']",1,"left","['9']",5,0.0839249000000564,"[0.0361634]",99,49,"shape",53,18,"V","R",NA,"hard","plus","alpha",-1,77,"hard"
6,2,"training",23,57,0.76688970000032,"['n']",1,"right","['9']",5,0.32967059999919,"[-0.12839436]",100,57,"shape",53,18,"V","R",NA,"medium","plus","alpha",1,78,"medium"
7,2,"training",49,31,0.9335130999998,"['c']",1,"left","['0']",6,0.0226311000005808,"[0.03193965]",100,49,"shape",53,18,"V","R",NA,"hard","plus","alpha",-1,79,"hard"
8,2,"training",23,57,0.966735400000289,"['n']",1,"right","['0']",6,0.150271999999859,"[-0.04940539]",99,57,"shape",53,18,"V","R",NA,"medium","plus","alpha",1,80,"medium"
9,2,"training",31,49,0.999719700000242,"['c']",0,"right","['0']",6,0.0480059999999867,"[0.01290458]",89,49,"shape",53,18,"V","R",NA,"hard","plus","alpha",-1,81,"hard"
10,2,"training",57,23,0.68321190000006,"['c']",1,"left","['0']",6,0.0262505000000601,"[0.04846641]",100,57,"shape",53,18,"V","R",NA,"medium","plus","alpha",-1,82,"medium"
11,2,"training",62,18,0.682508399999278,"['c']",1,"left","['0']",6,0.0451713000002201,"[0.0510937]",100,62,"shape",53,18,"V","R",NA,"easy","plus","alpha",-1,83,"easy"
12,2,"training",57,23,0.749579199999971,"['c']",1,"left","['0']",6,0.0527532999994946,"[0.04711733]",100,57,"shape",53,18,"V","R",NA,"medium","plus","alpha",-1,84,"medium"
13,2,"training",18,62,0.999773999999888,"['n']",1,"right","['0']",6,0.0344217000001663,"[-0.03906011]",100,62,"shape",53,18,"V","R",NA,"easy","plus","alpha",1,85,"easy"
14,2,"training",18,62,0.749628599999596,"['n']",1,"right","['0']",6,0.0907081999994261,"[-0.0636018]",100,62,"shape",53,18,"V","R",NA,"easy","plus","alpha",1,86,"easy"
15,2,"training",57,23,1.0841677999997,"['c']",1,"left","['0']",6,0.0991012999993472,"[0.07508529]",100,57,"shape",53,18,"V","R",NA,"medium","plus","alpha",-1,87,"medium"
16,2,"training",62,18,0.683579700000337,"['c']",1,"left","['0']",6,0.0113886000008279,"[0.05277381]",100,62,"shape",53,18,"V","R",NA,"easy","plus","alpha",-1,88,"easy"
17,2,"training",49,31,0.616937900000266,"['c']",1,"left","['0']",6,0.521616500000164,"[0.10521081]",99,49,"shape",53,18,"V","R",NA,"hard","plus","alpha",-1,89,"hard"
18,2,"training",49,31,0.749828099999831,"['c']",1,"left","['9']",5,0.0703413000001092,"[0.04981652]",100,49,"shape",53,18,"V","R",NA,"hard","plus","alpha",-1,90,"hard"
19,2,"training",49,31,0.633788299999651,"['c']",1,"left","['9']",5,0.225561299999754,"[0.02199643]",84,49,"shape",53,18,"V","R",NA,"hard","plus","alpha",-1,91,"hard"
20,2,"training",18,62,0.81709950000004,"['n']",1,"right","['0']",6,0.0232555000002321,"[-0.05858735]",100,62,"shape",53,18,"V","R",NA,"easy","plus","alpha",1,92,"easy"
21,2,"training",18,62,1.56698369999958,"['n']",1,"right","['0']",6,0.078892900000028,"[-0.10526154]",100,62,"shape",53,18,"V","R",NA,"easy","plus","alpha",1,93,"easy"
22,2,"training",31,49,0.833819800000128,"['c']",0,"right","['0']",6,0.0499898999996731,"[0.03936836]",100,49,"shape",53,18,"V","R",NA,"hard","plus","alpha",-1,94,"hard"
23,2,"training",62,18,0.71690419999959,"['c']",1,"left","['0']",6,0.562869099999261,"[0.05961039]",95,62,"shape",53,18,"V","R",NA,"easy","plus","alpha",-1,95,"easy"
24,2,"training",18,62,1.30091280000033,"['n']",1,"right","['8']",4,0.552115800000138,"[-0.2048974]",100,62,"shape",53,18,"V","R",NA,"easy","plus","alpha",1,96,"easy"
25,2,"training",23,57,0.917257300000529,"['n']",1,"right","['0']",6,0.012488399999711,"[-0.05665357]",100,57,"shape",53,18,"V","R",NA,"medium","plus","alpha",1,97,"medium"
26,2,"training",23,57,0.867262600000686,"['n']",1,"right","['9']",5,0.032735099999627,"[-0.0630192]",100,57,"shape",53,18,"V","R",NA,"medium","plus","alpha",1,98,"medium"
27,2,"training",18,62,0.666886800000611,"['n']",1,"right","['0']",6,0.0521963999999571,"[-0.05720564]",100,62,"shape",53,18,"V","R",NA,"easy","plus","alpha",1,99,"easy"
28,2,"training",23,57,0.717015700000047,"['n']",1,"right","['0']",6,0.0532938999995167,"[-0.06668272]",100,57,"shape",53,18,"V","R",NA,"medium","plus","alpha",1,100,"medium"
29,2,"training",62,18,0.650442199999816,"['c']",1,"left","['0']",6,0.0647881000004418,"[0.05874244]",100,62,"shape",53,18,"V","R",NA,"easy","plus","alpha",-1,101,"easy"
30,2,"training",57,23,0.716962700000295,"['c']",1,"left","['0']",6,0.0651588999999149,"[0.07323731]",100,57,"shape",53,18,"V","R",NA,"medium","plus","alpha",-1,102,"medium"
31,2,"training",49,31,1.18336939999972,"['n']",0,"left","['9']",5,0.126759900000252,"[0.00015858]",50,49,"shape",53,18,"V","R",NA,"hard","plus","alpha",1,103,"hard"
32,2,"training",31,49,0.800557000000481,"['n']",1,"right","['9']",5,0.121090900000127,"[-0.07811111]",100,49,"shape",53,18,"V","R",NA,"hard","plus","alpha",1,104,"hard"
33,2,"training",57,23,1.11656260000018,"['c']",1,"left","['0']",6,0.078756699999758,"[0.0731605]",100,57,"shape",53,18,"V","R",NA,"medium","plus","alpha",-1,105,"medium"
34,2,"training",31,49,0.683090800000173,"['c']",0,"right","['0']",6,0.0159790999996403,"[0.04262623]",100,49,"shape",53,18,"V","R",NA,"hard","plus","alpha",-1,106,"hard"
35,2,"training",57,23,0.73372610000024,"['c']",1,"left","['0']",6,0.600024200000007,"[0.09046589]",99,57,"shape",53,18,"V","R",NA,"medium","plus","alpha",-1,107,"medium"
0,0,"training",31,49,1.26682840000012,"['c']",0,"right","['9']",5,0.358133200000339,"[0.01851506]",64,49,"letter",53,18,"V","R",NA,"hard","control","alpha",-1,0,"hard"
1,0,"training",49,31,0.699957199999517,"['c']",1,"left","['0']",6,0.203052799999568,"[0.01662696]",66,49,"letter",53,18,"V","R",NA,"hard","control","alpha",-1,1,"hard"
2,0,"training",16,64,0.849704500000371,"['n']",1,"right","['0']",6,0.0798362000005,"[-0.08658185]",100,64,"letter",53,18,"V","R",NA,"easy","control","alpha",1,2,"easy"
3,0,"training",23,57,0.800095200000214,"['n']",1,"right","['0']",6,0.124315900000511,"[-0.03500266]",86,57,"letter",53,18,"V","R",NA,"medium","control","alpha",1,3,"medium"
4,0,"training",49,31,0.783404499999961,"['c']",1,"left","['0']",6,0.0313815999998042,"[0.03891238]",98,49,"letter",53,18,"V","R",NA,"hard","control","alpha",-1,4,"hard"
5,0,"training",16,64,0.983802100000503,"['n']",1,"right","['0']",6,0.0696259999995164,"[-0.04072305]",94,64,"letter",53,18,"V","R",NA,"easy","control","alpha",1,5,"easy"
6,0,"training",57,23,1.00015590000021,"['c']",1,"left","['0']",6,0.354584200000318,"[0.18482808]",100,57,"letter",53,18,"V","R",NA,"medium","control","alpha",-1,6,"medium"
7,0,"training",49,31,0.999960199999805,"['n']",0,"left","['0']",6,0.107599500000106,"[-0.09193863]",99,49,"letter",53,18,"V","R",NA,"hard","control","alpha",1,7,"hard"
8,0,"training",23,57,0.700096499999745,"['n']",1,"right","['0']",6,0.0587421999998696,"[-0.09741755]",100,57,"letter",53,18,"V","R",NA,"medium","control","alpha",1,8,"medium"
9,0,"training",57,23,0.766867299999831,"['c']",1,"left","['0']",6,0.065028799999709,"[0.08981724]",100,57,"letter",53,18,"V","R",NA,"medium","control","alpha",-1,9,"medium"
10,0,"training",16,64,0.866957399999592,"['n']",1,"right","['0']",6,0.0513246000000436,"[-0.04525041]",97,64,"letter",53,18,"V","R",NA,"easy","control","alpha",1,10,"easy"
11,0,"training",49,31,1.1163590999995,"['c']",1,"left","['0']",6,0.124224600000161,"[0.07635336]",98,49,"letter",53,18,"V","R",NA,"hard","control","alpha",-1,11,"hard"
12,0,"training",23,57,0.782480399999258,"['n']",1,"right","['9']",5,0.127643400000125,"[-0.08139637]",98,57,"letter",53,18,"V","R",NA,"medium","control","alpha",1,12,"medium"
13,0,"training",57,23,1.08306090000042,"['c']",1,"left","['0']",6,0.0785107000001517,"[0.05573489]",97,57,"letter",53,18,"V","R",NA,"medium","control","alpha",-1,13,"medium"
14,0,"training",64,16,1.28336959999979,"['c']",1,"left","['0']",6,0.079382899999473,"[0.04790665]",95,64,"letter",53,18,"V","R",NA,"easy","control","alpha",-1,14,"easy"
15,0,"training",64,16,0.633932299999287,"['c']",1,"left","['0']",6,0.0185015000006388,"[0.04957369]",100,64,"letter",53,18,"V","R",NA,"easy","control","alpha",-1,15,"easy"
16,0,"training",31,49,0.699578400000064,"['n']",1,"right","['0']",6,0.0530796000002738,"[-0.04263793]",96,49,"letter",53,18,"V","R",NA,"hard","control","alpha",1,16,"hard"
17,0,"training",64,16,0.8500911000001,"['c']",1,"left","['0']",6,0.0568052999997235,"[0.06674922]",99,64,"letter",53,18,"V","R",NA,"easy","control","alpha",-1,17,"easy"
18,0,"training",31,49,1.08353920000081,"['c']",0,"right","['0']",6,0.138436799999909,"[-0.03152464]",18,49,"letter",53,18,"V","R",NA,"hard","control","alpha",-1,18,"hard"
19,0,"training",16,64,0.866569199999503,"['n']",1,"right","['0']",6,0.0573457000000417,"[-0.08466861]",100,64,"letter",53,18,"V","R",NA,"easy","control","alpha",1,19,"easy"
20,0,"training",31,49,0.782815300000038,"['n']",1,"right","['0']",6,0.0711025000000518,"[-0.05760046]",98,49,"letter",53,18,"V","R",NA,"hard","control","alpha",1,20,"hard"
21,0,"training",31,49,0.749662899999748,"['n']",1,"right","['0']",6,0.765441499999724,"[0.09218766]",13,49,"letter",53,18,"V","R",NA,"hard","control","alpha",1,21,"hard"
22,0,"training",64,16,0.749791499999446,"['c']",1,"left","['0']",6,0.66388089999964,"[0.15141484]",97,64,"letter",53,18,"V","R",NA,"easy","control","alpha",-1,22,"easy"
23,0,"training",64,16,1.20043429999987,"['c']",1,"left","['8']",4,0.0767328000001726,"[0.06177699]",98,64,"letter",53,18,"V","R",NA,"easy","control","alpha",-1,23,"easy"
24,0,"training",57,23,0.916950599999836,"['c']",1,"left","['8']",4,0.076495100000102,"[0.0162901]",74,57,"letter",53,18,"V","R",NA,"medium","control","alpha",-1,24,"medium"
25,0,"training",49,31,0.68363539999973,"['n']",0,"left","['8']",4,0.173171399999774,"[0.00813681]",41,49,"letter",53,18,"V","R",NA,"hard","control","alpha",1,25,"hard"
26,0,"training",57,23,0.717016699999476,"['c']",1,"left","['0']",6,0.0730445999997755,"[0.03385256]",90,57,"letter",53,18,"V","R",NA,"medium","control","alpha",-1,26,"medium"
27,0,"training",16,64,0.750062799999796,"['n']",1,"right","['0']",6,0.0950820999996722,"[-0.06200632]",97,64,"letter",53,18,"V","R",NA,"easy","control","alpha",1,27,"easy"
28,0,"training",23,57,0.716510399999606,"['n']",1,"right","['0']",6,0.662375599999905,"[-0.21138216]",99,57,"letter",53,18,"V","R",NA,"medium","control","alpha",1,28,"medium"
29,0,"training",23,57,0.783289900000455,"['c']",0,"right","['0']",6,0.0840013000006365,"[0.06433186]",98,57,"letter",53,18,"V","R",NA,"medium","control","alpha",-1,29,"medium"
30,0,"training",49,31,0.934059100000013,"['c']",1,"left","['0']",6,0.0662689000000682,"[0.07093371]",99,49,"letter",53,18,"V","R",NA,"hard","control","alpha",-1,30,"hard"
31,0,"training",64,16,0.717160900000636,"['c']",1,"left","['0']",6,0.0105769000001601,"[0.06201266]",100,64,"letter",53,18,"V","R",NA,"easy","control","alpha",-1,31,"easy"
32,0,"training",16,64,0.799780599999394,"['n']",1,"right","['0']",6,0.0577187999997477,"[-0.05730788]",99,64,"letter",53,18,"V","R",NA,"easy","control","alpha",1,32,"easy"
33,0,"training",23,57,0.89979459999995,"['n']",1,"right","['0']",6,0.0265441999999894,"[-0.04355227]",99,57,"letter",53,18,"V","R",NA,"medium","control","alpha",1,33,"medium"
34,0,"training",57,23,0.95004710000012,"['n']",0,"left","['9']",5,0.138574399999925,"[-0.03693529]",86,57,"letter",53,18,"V","R",NA,"medium","control","alpha",1,34,"medium"
35,0,"training",31,49,0.733458800000335,"['n']",1,"right","['9']",5,0.078383400000348,"[-0.07759027]",99,49,"letter",53,18,"V","R",NA,"hard","control","alpha",1,35,"hard"
0,1,"training",49,31,0.800426400000106,"['n']",0,"left","['9']",5,0.0617185999999492,"[-0.07110933]",99,49,"letter",53,18,"V","R",NA,"hard","control","alpha",1,36,"hard"
1,1,"training",57,23,1.31626139999935,"['c']",1,"left","['9']",5,0.0381022999999914,"[0.06071458]",100,57,"letter",53,18,"V","R",NA,"medium","control","alpha",-1,37,"medium"
2,1,"training",16,64,0.76630010000008,"['n']",1,"right","['9']",5,0.0928526999996393,"[-0.09677503]",100,64,"letter",53,18,"V","R",NA,"easy","control","alpha",1,38,"easy"
3,1,"training",23,57,0.899388400000134,"['n']",1,"right","['0']",6,0.0847371999998359,"[-0.00403517]",56,57,"letter",53,18,"V","R",NA,"medium","control","alpha",1,39,"medium"
4,1,"training",49,31,0.849456999999347,"['c']",1,"left","['8']",4,0.158998800000518,"[0.07900849]",97,49,"letter",53,18,"V","R",NA,"hard","control","alpha",-1,40,"hard"
5,1,"training",16,64,0.683445900000152,"['n']",1,"right","['0']",6,0.132489599999644,"[-0.08970788]",99,64,"letter",53,18,"V","R",NA,"easy","control","alpha",1,41,"easy"
6,1,"training",64,16,0.933356300000014,"['n']",0,"left","['0']",6,0.0657529000000068,"[-0.02847262]",88,64,"letter",53,18,"V","R",NA,"easy","control","alpha",1,42,"easy"
7,1,"training",23,57,0.73344409999936,"['n']",1,"right","['0']",6,0.120513500000015,"[-0.06082932]",96,57,"letter",53,18,"V","R",NA,"medium","control","alpha",1,43,"medium"
8,1,"training",57,23,0.766056899999967,"['c']",1,"left","['0']",6,0.204216300000553,"[0.13938051]",100,57,"letter",53,18,"V","R",NA,"medium","control","alpha",-1,44,"medium"
9,1,"training",64,16,0.983438499999465,"['c']",1,"left","['0']",6,0.155743000000257,"[0.08076098]",98,64,"letter",53,18,"V","R",NA,"easy","control","alpha",-1,45,"easy"
10,1,"training",64,16,0.850230899999588,"['c']",1,"left","['0']",6,0.0908644999999524,"[0.11159158]",100,64,"letter",53,18,"V","R",NA,"easy","control","alpha",-1,46,"easy"
11,1,"training",31,49,0.683386200000314,"['n']",1,"right","['0']",6,0.187058999999863,"[-0.0828478]",97,49,"letter",53,18,"V","R",NA,"hard","control","alpha",1,47,"hard"
12,1,"training",57,23,0.982940500000041,"['c']",1,"left","['0']",6,0.19536270000026,"[0.15558883]",100,57,"letter",53,18,"V","R",NA,"medium","control","alpha",-1,48,"medium"
13,1,"training",57,23,0.783374000000549,"['c']",1,"left","['0']",6,0.0996909000004962,"[0.06336092]",97,57,"letter",53,18,"V","R",NA,"medium","control","alpha",-1,49,"medium"
14,1,"training",64,16,1.01678909999919,"['c']",1,"left","['0']",6,0.0549608000001172,"[0.06831246]",99,64,"letter",53,18,"V","R",NA,"easy","control","alpha",-1,50,"easy"
15,1,"training",31,49,0.850179500000195,"['n']",1,"right","['0']",6,0.0337091000001237,"[-0.04754336]",99,49,"letter",53,18,"V","R",NA,"hard","control","alpha",1,51,"hard"
16,1,"training",57,23,1.0836405,"['c']",1,"left","['9']",5,0.0847126999997272,"[0.06600222]",98,57,"letter",53,18,"V","R",NA,"medium","control","alpha",-1,52,"medium"
17,1,"training",23,57,1.16668349999964,"['n']",1,"right","['9']",5,0.202244699999937,"[-0.06518456]",93,57,"letter",53,18,"V","R",NA,"medium","control","alpha",1,53,"medium"
